timestamp,R00,R01,R02,R11,R12,R22,pos_N,pos_E,pos_D,vel_N,vel_E,vel_D,accel_x,accel_y,accel_z,pos_uncert,vel_uncert
101.041,-0.067,0.181,-0.981,0.723,0.086,-0.172,nan,nan,nan,-0.027,0.116,-0.103,-6.364,6.302,0.596,3.406,0.305
101.041,-0.067,0.181,-0.981,0.723,0.086,-0.172,1.829,-0.894,3.178,-0.027,0.116,-0.103,-6.364,6.302,0.596,3.406,0.305
101.041,-0.067,0.181,-0.981,0.723,0.086,-0.172,1.829,-0.894,3.178,-0.027,0.116,-0.103,-6.364,6.302,0.596,3.406,0.305
101.101,-0.069,0.207,-0.976,0.716,0.103,-0.192,1.809,-0.911,3.120,-0.011,0.034,-0.089,-7.872,5.030,1.997,3.384,0.291
101.141,-0.080,0.228,-0.970,0.710,0.110,-0.215,1.808,-0.910,3.117,0.008,0.037,-0.060,-5.116,7.855,0.031,3.387,0.293
101.141,-0.080,0.228,-0.970,0.710,0.110,-0.215,1.808,-0.910,3.117,0.008,0.037,-0.060,-5.116,7.855,0.031,3.387,0.293
101.201,-0.087,0.240,-0.967,0.701,0.111,-0.230,1.812,-0.910,3.113,0.063,-0.019,-0.069,-6.129,6.022,2.040,3.391,0.298
101.201,-0.087,0.240,-0.967,0.701,0.111,-0.230,1.812,-0.910,3.113,0.063,-0.019,-0.069,-6.129,6.022,2.040,3.391,0.298
101.241,-0.098,0.251,-0.963,0.700,0.111,-0.245,1.815,-0.911,3.112,0.122,-0.038,-0.008,-6.752,7.334,0.700,3.394,0.302
101.241,-0.098,0.251,-0.963,0.700,0.111,-0.245,1.815,-0.911,3.112,0.122,-0.038,-0.008,-6.752,7.334,0.700,3.394,0.302
101.301,-0.099,0.261,-0.960,0.695,0.116,-0.254,1.826,-0.916,3.109,0.220,-0.122,-0.096,-7.487,7.653,0.420,3.399,0.312
101.301,-0.099,0.261,-0.960,0.695,0.116,-0.254,1.826,-0.916,3.109,0.220,-0.122,-0.096,-7.487,7.653,0.420,3.399,0.312
101.341,-0.101,0.263,-0.959,0.691,0.114,-0.258,1.961,-0.974,3.019,0.428,-0.177,-0.060,-5.881,6.864,-0.099,3.372,0.298
101.341,-0.101,0.263,-0.959,0.691,0.114,-0.258,1.961,-0.974,3.019,0.428,-0.177,-0.060,-5.881,6.864,-0.099,3.372,0.298
101.401,-0.101,0.256,-0.961,0.687,0.108,-0.254,1.989,-0.987,3.017,0.509,-0.236,0.002,-7.013,6.689,1.308,3.376,0.314
101.401,-0.101,0.256,-0.961,0.687,0.108,-0.254,1.989,-0.987,3.017,0.509,-0.236,0.002,-7.013,6.689,1.308,3.376,0.314
101.461,-0.105,0.271,-0.957,0.687,0.116,-0.267,2.022,-1.002,3.016,0.567,-0.288,-0.040,-7.391,7.414,0.746,3.380,0.327
101.461,-0.105,0.271,-0.957,0.687,0.116,-0.267,2.022,-1.002,3.016,0.567,-0.288,-0.040,-7.391,7.414,0.746,3.380,0.327
101.501,-0.110,0.274,-0.956,0.689,0.114,-0.272,2.047,-1.015,3.015,0.674,-0.314,-0.053,-6.714,8.473,0.237,3.383,0.342
101.501,-0.110,0.274,-0.956,0.689,0.114,-0.272,2.047,-1.015,3.015,0.674,-0.314,-0.053,-6.714,8.473,0.237,3.383,0.342
101.561,-0.113,0.266,-0.957,0.689,0.107,-0.268,2.035,-0.939,2.930,0.790,-0.329,-0.114,-7.557,7.769,1.323,3.352,0.316
101.561,-0.113,0.266,-0.957,0.689,0.107,-0.268,2.035,-0.939,2.930,0.790,-0.329,-0.114,-7.557,7.769,1.323,3.352,0.316
101.601,-0.098,0.264,-0.959,0.683,0.114,-0.258,2.068,-0.953,2.925,0.809,-0.338,-0.149,-8.077,8.155,3.297,3.355,0.326
101.601,-0.098,0.264,-0.959,0.683,0.114,-0.258,2.068,-0.953,2.925,0.809,-0.338,-0.149,-8.077,8.155,3.297,3.355,0.326
101.661,-0.086,0.272,-0.958,0.677,0.127,-0.256,2.114,-0.973,2.913,0.727,-0.316,-0.221,-6.733,7.115,4.159,3.358,0.317
101.661,-0.086,0.272,-0.958,0.677,0.127,-0.256,2.114,-0.973,2.913,0.727,-0.316,-0.221,-6.733,7.115,4.159,3.358,0.317
101.701,-0.082,0.257,-0.963,0.681,0.120,-0.242,2.191,-0.953,2.834,0.766,-0.278,-0.211,-6.100,6.213,2.373,3.361,0.312
101.701,-0.082,0.257,-0.963,0.681,0.120,-0.242,2.191,-0.953,2.834,0.766,-0.278,-0.211,-6.100,6.213,2.373,3.361,0.312
101.761,-0.085,0.241,-0.967,0.688,0.108,-0.232,2.237,-0.964,2.822,0.759,-0.083,-0.149,-2.999,7.364,2.581,3.337,0.281
101.761,-0.085,0.241,-0.967,0.688,0.108,-0.232,2.237,-0.964,2.822,0.759,-0.083,-0.149,-2.999,7.364,2.581,3.337,0.281
101.801,-0.086,0.220,-0.972,0.696,0.094,-0.216,2.269,-0.967,2.819,0.802,-0.038,-0.072,-6.275,7.792,3.810,3.340,0.288
101.801,-0.086,0.220,-0.972,0.696,0.094,-0.216,2.269,-0.967,2.819,0.802,-0.038,-0.072,-6.275,7.792,3.810,3.340,0.288
101.861,-0.097,0.197,-0.976,0.695,0.069,-0.208,2.315,-0.964,2.814,0.693,0.126,-0.089,-5.473,7.014,4.317,3.343,0.287
101.861,-0.097,0.197,-0.976,0.695,0.069,-0.208,2.315,-0.964,2.814,0.693,0.126,-0.089,-5.473,7.014,4.317,3.343,0.287
101.901,-0.158,0.146,-0.977,0.689,-0.014,-0.214,2.343,-0.958,2.810,0.749,0.148,-0.102,-7.568,6.799,-1.026,3.346,0.290
101.901,-0.158,0.146,-0.977,0.689,-0.014,-0.214,2.343,-0.958,2.810,0.749,0.148,-0.102,-7.568,6.799,-1.026,3.346,0.290
101.961,-0.212,0.103,-0.972,0.684,-0.086,-0.220,2.301,-0.993,2.807,0.707,0.075,-0.043,-7.421,6.457,0.137,3.317,0.259
101.961,-0.212,0.103,-0.972,0.684,-0.086,-0.220,2.301,-0.993,2.807,0.707,0.075,-0.043,-7.421,6.457,0.137,3.317,0.259
102.021,-0.245,0.056,-0.968,0.702,-0.136,-0.211,2.346,-0.994,2.803,0.751,-0.031,-0.064,-5.300,5.906,1.679,3.321,0.264
102.021,-0.245,0.056,-0.968,0.702,-0.136,-0.211,2.346,-0.994,2.803,0.751,-0.031,-0.064,-5.300,5.906,1.679,3.321,0.264
102.061,-0.267,0.052,-0.962,0.721,-0.149,-0.228,2.376,-0.996,2.800,0.758,-0.061,-0.066,-8.741,6.583,2.372,3.323,0.266
102.061,-0.267,0.052,-0.962,0.721,-0.149,-0.228,2.376,-0.996,2.800,0.758,-0.061,-0.066,-8.741,6.583,2.372,3.323,0.266
102.121,-0.299,0.028,-0.954,0.746,-0.179,-0.241,2.427,-1.014,2.731,0.839,-0.140,-0.081,-7.087,7.769,1.158,3.296,0.247
102.121,-0.299,0.028,-0.954,0.746,-0.179,-0.241,2.427,-1.014,2.731,0.839,-0.140,-0.081,-7.087,7.769,1.158,3.296,0.247
102.161,-0.320,-0.000,-0.948,0.763,-0.207,-0.244,2.463,-1.021,2.727,0.966,-0.213,-0.164,-10.949,7.322,-0.624,3.298,0.258
102.161,-0.320,-0.000,-0.948,0.763,-0.207,-0.244,2.463,-1.021,2.727,0.966,-0.213,-0.164,-10.949,7.322,-0.624,3.298,0.258
102.221,-0.306,-0.018,-0.952,0.789,-0.201,-0.231,2.528,-1.035,2.716,1.145,-0.190,-0.171,-6.970,8.376,2.101,3.301,0.289
102.221,-0.306,-0.018,-0.952,0.789,-0.201,-0.231,2.528,-1.035,2.716,1.145,-0.190,-0.171,-6.970,8.376,2.101,3.301,0.289
102.261,-0.289,-0.019,-0.957,0.796,-0.189,-0.220,2.574,-1.041,2.708,1.152,-0.126,-0.259,-8.097,7.380,1.536,3.303,0.289
102.261,-0.289,-0.019,-0.957,0.796,-0.189,-0.220,2.574,-1.041,2.708,1.152,-0.126,-0.259,-8.097,7.380,1.536,3.303,0.289
102.321,-0.269,-0.018,-0.963,0.801,-0.175,-0.205,2.594,-0.937,2.734,1.061,0.056,-0.292,-7.353,6.470,4.263,3.281,0.266
102.361,-0.241,-0.031,-0.970,0.790,-0.172,-0.172,2.637,-0.935,2.723,1.096,0.001,-0.273,-8.431,3.305,0.114,3.283,0.266
102.361,-0.241,-0.031,-0.970,0.790,-0.172,-0.172,2.637,-0.935,2.723,1.096,0.001,-0.273,-8.431,3.305,0.114,3.283,0.266
102.421,-0.172,0.034,-0.984,0.778,-0.082,-0.155,2.698,-0.938,2.709,0.868,-0.052,-0.193,-5.837,3.737,7.015,3.286,0.257
102.421,-0.172,0.034,-0.984,0.778,-0.082,-0.155,2.698,-0.938,2.709,0.868,-0.052,-0.193,-5.837,3.737,7.015,3.286,0.257
102.461,-0.191,0.051,-0.980,0.775,-0.082,-0.181,2.730,-0.939,2.703,0.756,-0.031,-0.098,-5.464,5.459,1.616,3.289,0.248
102.461,-0.191,0.051,-0.980,0.775,-0.082,-0.181,2.730,-0.939,2.703,0.756,-0.031,-0.098,-5.464,5.459,1.616,3.289,0.248
102.521,-0.233,0.073,-0.970,0.771,-0.093,-0.226,2.748,-0.897,2.690,0.943,-0.015,0.048,-5.019,4.502,-0.222,3.267,0.250
102.521,-0.233,0.073,-0.970,0.771,-0.093,-0.226,2.748,-0.897,2.690,0.943,-0.015,0.048,-5.019,4.502,-0.222,3.267,0.250
102.561,-0.239,0.087,-0.967,0.768,-0.087,-0.239,2.785,-0.898,2.694,0.949,-0.027,0.178,-5.975,3.973,0.799,3.270,0.253
102.561,-0.239,0.087,-0.967,0.768,-0.087,-0.239,2.785,-0.898,2.694,0.949,-0.027,0.178,-5.975,3.973,0.799,3.270,0.253
102.621,-0.244,0.088,-0.966,0.769,-0.089,-0.243,2.844,-0.903,2.707,1.009,-0.121,0.213,-8.388,5.963,1.186,3.273,0.262
102.621,-0.244,0.088,-0.966,0.769,-0.089,-0.243,2.844,-0.903,2.707,1.009,-0.121,0.213,-8.388,5.963,1.186,3.273,0.262
102.681,-0.244,0.098,-0.965,0.767,-0.083,-0.249,2.906,-0.912,2.718,1.062,-0.161,0.116,-9.740,7.751,-0.212,3.276,0.270
102.681,-0.244,0.098,-0.965,0.767,-0.083,-0.249,2.906,-0.912,2.718,1.062,-0.161,0.116,-9.740,7.751,-0.212,3.276,0.270
102.721,-0.237,0.100,-0.966,0.761,-0.079,-0.245,2.941,-0.882,2.692,1.220,-0.165,0.041,-8.556,8.259,0.219,3.253,0.271
102.721,-0.237,0.100,-0.966,0.761,-0.079,-0.245,2.941,-0.882,2.692,1.220,-0.165,0.041,-8.556,8.259,0.219,3.253,0.271
102.781,-0.213,0.102,-0.972,0.752,-0.065,-0.227,3.018,-0.894,2.691,1.316,-0.233,-0.076,-10.345,6.494,1.819,3.256,0.288
102.781,-0.213,0.102,-0.972,0.752,-0.065,-0.227,3.018,-0.894,2.691,1.316,-0.233,-0.076,-10.345,6.494,1.819,3.256,0.288
102.821,-0.208,0.093,-0.974,0.760,-0.065,-0.218,3.069,-0.904,2.686,1.207,-0.270,-0.153,-5.212,4.013,4.666,3.258,0.288
102.821,-0.208,0.093,-0.974,0.760,-0.065,-0.218,3.069,-0.904,2.686,1.207,-0.270,-0.153,-5.212,4.013,4.666,3.258,0.288
102.881,-0.201,0.087,-0.976,0.784,-0.058,-0.212,3.139,-0.919,2.670,1.083,-0.191,-0.336,-6.503,9.284,6.407,3.262,0.276
102.881,-0.201,0.087,-0.976,0.784,-0.058,-0.212,3.139,-0.919,2.670,1.083,-0.191,-0.336,-6.503,9.284,6.407,3.262,0.276
102.921,-0.201,0.096,-0.975,0.786,-0.049,-0.217,3.210,-0.839,2.662,1.039,-0.012,-0.375,-7.167,5.814,5.708,3.238,0.248
102.921,-0.201,0.096,-0.975,0.786,-0.049,-0.217,3.210,-0.839,2.662,1.039,-0.012,-0.375,-7.167,5.814,5.708,3.238,0.248
102.981,-0.232,0.105,-0.967,0.799,-0.057,-0.249,3.267,-0.840,2.639,0.937,-0.007,-0.398,-5.982,8.099,1.497,3.242,0.246
102.981,-0.232,0.105,-0.967,0.799,-0.057,-0.249,3.267,-0.840,2.639,0.937,-0.007,-0.398,-5.982,8.099,1.497,3.242,0.246
103.021,-0.259,0.116,-0.959,0.798,-0.065,-0.277,3.305,-0.839,2.625,0.929,0.043,-0.317,-5.317,2.433,0.453,3.244,0.248
103.021,-0.259,0.116,-0.959,0.798,-0.065,-0.277,3.305,-0.839,2.625,0.929,0.043,-0.317,-5.317,2.433,0.453,3.244,0.248
103.081,-0.287,0.124,-0.950,0.809,-0.071,-0.305,3.362,-0.839,2.614,0.997,-0.024,-0.036,-3.730,3.215,0.128,3.247,0.251
103.081,-0.287,0.124,-0.950,0.809,-0.071,-0.305,3.362,-0.839,2.614,0.997,-0.024,-0.036,-3.730,3.215,0.128,3.247,0.251
103.121,-0.292,0.121,-0.949,0.820,-0.070,-0.308,3.440,-0.852,2.506,1.132,-0.001,0.078,-6.465,6.327,1.394,3.223,0.240
103.121,-0.292,0.121,-0.949,0.820,-0.070,-0.308,3.440,-0.852,2.506,1.132,-0.001,0.078,-6.465,6.327,1.394,3.223,0.240
103.181,-0.284,0.127,-0.950,0.834,-0.053,-0.306,3.510,-0.851,2.513,1.197,0.040,0.141,-6.563,6.267,2.235,3.227,0.246
103.181,-0.284,0.127,-0.950,0.834,-0.053,-0.306,3.510,-0.851,2.513,1.197,0.040,0.141,-6.563,6.267,2.235,3.227,0.246
103.241,-0.283,0.123,-0.951,0.849,-0.047,-0.305,3.586,-0.846,2.521,1.327,0.134,0.082,-9.548,8.304,2.266,3.230,0.256
103.241,-0.283,0.123,-0.951,0.849,-0.047,-0.305,3.586,-0.846,2.521,1.327,0.134,0.082,-9.548,8.304,2.266,3.230,0.256
103.281,-0.279,0.126,-0.952,0.854,-0.038,-0.304,3.641,-0.840,2.522,1.407,0.177,-0.041,-9.571,8.491,2.727,3.232,0.266
103.281,-0.279,0.126,-0.952,0.854,-0.038,-0.304,3.641,-0.840,2.522,1.407,0.177,-0.041,-9.571,8.491,2.727,3.232,0.266
103.341,-0.250,0.115,-0.961,0.852,-0.034,-0.273,3.645,-0.943,2.537,1.512,0.105,-0.182,-9.764,6.379,1.223,3.209,0.266
103.341,-0.250,0.115,-0.961,0.852,-0.034,-0.273,3.645,-0.943,2.537,1.512,0.105,-0.182,-9.764,6.379,1.223,3.209,0.266
103.381,-0.200,0.118,-0.973,0.842,-0.009,-0.232,3.707,-0.939,2.528,1.557,0.107,-0.283,-10.487,6.991,3.828,3.211,0.276
103.381,-0.200,0.118,-0.973,0.842,-0.009,-0.232,3.707,-0.939,2.528,1.557,0.107,-0.283,-10.487,6.991,3.828,3.211,0.276
103.441,-0.146,0.128,-0.981,0.826,0.024,-0.193,3.794,-0.932,2.507,1.319,0.101,-0.397,-8.309,4.102,6.607,3.214,0.261
103.441,-0.146,0.128,-0.981,0.826,0.024,-0.193,3.794,-0.932,2.507,1.319,0.101,-0.397,-8.309,4.102,6.607,3.214,0.261
103.481,-0.151,0.121,-0.981,0.822,0.014,-0.193,3.844,-0.928,2.491,1.188,0.073,-0.385,-7.646,3.311,3.582,3.216,0.253
103.481,-0.151,0.121,-0.981,0.822,0.014,-0.193,3.844,-0.928,2.491,1.188,0.073,-0.385,-7.646,3.311,3.582,3.216,0.253
103.541,-0.178,0.125,-0.976,0.829,0.005,-0.218,3.911,-0.846,2.409,1.123,0.094,-0.294,-5.480,5.452,3.780,3.194,0.237
103.581,-0.214,0.119,-0.970,0.827,-0.023,-0.244,3.955,-0.841,2.400,1.128,0.142,-0.160,-5.286,4.771,-1.249,3.196,0.240
103.581,-0.214,0.119,-0.970,0.827,-0.023,-0.244,3.955,-0.841,2.400,1.128,0.142,-0.160,-5.286,4.771,-1.249,3.196,0.240
103.641,-0.232,0.135,-0.963,0.810,-0.028,-0.267,4.026,-0.832,2.395,1.208,0.150,-0.026,-6.383,4.151,1.603,3.199,0.243
103.641,-0.232,0.135,-0.963,0.810,-0.028,-0.267,4.026,-0.832,2.395,1.208,0.150,-0.026,-6.383,4.151,1.603,3.199,0.243
103.681,-0.245,0.140,-0.959,0.799,-0.037,-0.279,4.075,-0.827,2.396,1.225,0.107,0.082,-6.382,3.367,1.168,3.201,0.244
103.681,-0.245,0.140,-0.959,0.799,-0.037,-0.279,4.075,-0.827,2.396,1.225,0.107,0.082,-6.382,3.367,1.168,3.201,0.244
103.741,-0.269,0.140,-0.953,0.797,-0.053,-0.299,4.140,-0.818,2.352,1.353,0.009,0.168,-8.710,4.780,-0.021,3.181,0.238
103.741,-0.269,0.140,-0.953,0.797,-0.053,-0.299,4.140,-0.818,2.352,1.353,0.009,0.168,-8.710,4.780,-0.021,3.181,0.238
103.801,-0.279,0.126,-0.952,0.812,-0.062,-0.300,4.226,-0.821,2.361,1.527,-0.096,0.095,-10.530,7.114,0.904,3.184,0.252
103.801,-0.279,0.126,-0.952,0.812,-0.062,-0.300,4.226,-0.821,2.361,1.527,-0.096,0.095,-10.530,7.114,0.904,3.184,0.252
103.841,-0.268,0.124,-0.955,0.820,-0.053,-0.290,4.289,-0.825,2.363,1.616,-0.095,-0.013,-10.033,8.216,2.847,3.186,0.263
103.841,-0.268,0.124,-0.955,0.820,-0.053,-0.290,4.289,-0.825,2.363,1.616,-0.095,-0.013,-10.033,8.216,2.847,3.186,0.263
103.901,-0.248,0.091,-0.965,0.816,-0.070,-0.254,4.345,-0.829,2.324,1.721,-0.106,-0.201,-10.235,7.897,1.477,3.189,0.277
103.901,-0.248,0.091,-0.965,0.816,-0.070,-0.254,4.345,-0.829,2.324,1.721,-0.106,-0.201,-10.235,7.897,1.477,3.189,0.277
103.941,-0.211,0.087,-0.974,0.811,-0.054,-0.222,4.413,-0.834,2.313,1.712,-0.147,-0.379,-13.310,6.347,4.736,3.169,0.274
103.941,-0.211,0.087,-0.974,0.811,-0.054,-0.222,4.413,-0.834,2.313,1.712,-0.147,-0.379,-13.310,6.347,4.736,3.169,0.274
104.001,-0.186,0.057,-0.981,0.813,-0.062,-0.184,4.510,-0.842,2.286,1.534,-0.112,-0.473,-5.590,4.842,3.075,3.172,0.261
104.001,-0.186,0.057,-0.981,0.813,-0.062,-0.184,4.510,-0.842,2.286,1.534,-0.112,-0.473,-5.590,4.842,3.075,3.172,0.261
104.041,-0.177,0.065,-0.982,0.817,-0.049,-0.182,4.570,-0.846,2.269,1.448,-0.092,-0.388,-6.344,4.031,4.747,3.175,0.258
104.041,-0.177,0.065,-0.982,0.817,-0.049,-0.182,4.570,-0.846,2.269,1.448,-0.092,-0.388,-6.344,4.031,4.747,3.175,0.258
104.101,-0.204,0.061,-0.977,0.827,-0.065,-0.203,4.655,-0.851,2.251,1.412,-0.036,-0.214,-3.596,4.373,1.330,3.178,0.257
104.101,-0.204,0.061,-0.977,0.827,-0.065,-0.203,4.655,-0.851,2.251,1.412,-0.036,-0.214,-3.596,4.373,1.330,3.178,0.257
104.141,-0.218,0.070,-0.973,0.826,-0.066,-0.219,4.704,-0.822,2.154,1.448,0.016,-0.048,-4.049,4.295,0.301,3.156,0.247
104.141,-0.218,0.070,-0.973,0.826,-0.066,-0.219,4.704,-0.822,2.154,1.448,0.016,-0.048,-4.049,4.295,0.301,3.156,0.247
104.201,-0.233,0.080,-0.969,0.822,-0.068,-0.237,4.794,-0.822,2.157,1.550,-0.021,0.126,-8.061,5.445,-0.268,3.159,0.252
104.201,-0.233,0.080,-0.969,0.822,-0.068,-0.237,4.794,-0.822,2.157,1.550,-0.021,0.126,-8.061,5.445,-0.268,3.159,0.252
104.241,-0.234,0.082,-0.969,0.826,-0.066,-0.239,4.857,-0.823,2.163,1.606,-0.047,0.128,-8.200,5.555,0.143,3.161,0.257
104.241,-0.234,0.082,-0.969,0.826,-0.066,-0.239,4.857,-0.823,2.163,1.606,-0.047,0.128,-8.200,5.555,0.143,3.161,0.257
104.301,-0.220,0.080,-0.972,0.840,-0.053,-0.228,4.958,-0.826,2.168,1.743,-0.045,0.017,-10.785,8.053,1.165,3.165,0.270
104.301,-0.220,0.080,-0.972,0.840,-0.053,-0.228,4.958,-0.826,2.168,1.743,-0.045,0.017,-10.785,8.053,1.165,3.165,0.270
104.361,-0.195,0.067,-0.979,0.851,-0.046,-0.201,5.044,-0.803,2.115,1.853,0.011,-0.174,-10.056,7.643,1.049,3.145,0.274
104.361,-0.195,0.067,-0.979,0.851,-0.046,-0.201,5.044,-0.803,2.115,1.853,0.011,-0.174,-10.056,7.643,1.049,3.145,0.274
104.401,-0.159,0.066,-0.985,0.852,-0.027,-0.170,5.120,-0.802,2.105,1.918,0.038,-0.290,-10.293,7.641,2.785,3.148,0.285
104.401,-0.159,0.066,-0.985,0.852,-0.027,-0.170,5.120,-0.802,2.105,1.918,0.038,-0.290,-10.293,7.641,2.785,3.148,0.285
104.461,-0.097,0.075,-0.992,0.840,0.010,-0.122,5.231,-0.798,2.083,1.727,0.097,-0.442,-8.314,5.578,5.849,3.151,0.276
104.461,-0.097,0.075,-0.992,0.840,0.010,-0.122,5.231,-0.798,2.083,1.727,0.097,-0.442,-8.314,5.578,5.849,3.151,0.276
104.501,-0.098,0.073,-0.993,0.824,0.005,-0.122,5.297,-0.793,2.066,1.597,0.108,-0.415,-7.285,3.185,3.079,3.153,0.270
104.501,-0.098,0.073,-0.993,0.824,0.005,-0.122,5.297,-0.793,2.066,1.597,0.108,-0.415,-7.285,3.185,3.079,3.153,0.270
104.561,-0.126,0.078,-0.989,0.814,-0.010,-0.148,5.376,-0.773,1.986,1.554,-0.015,-0.231,-7.117,2.087,0.978,3.134,0.259
104.561,-0.126,0.078,-0.989,0.814,-0.010,-0.148,5.376,-0.773,1.986,1.554,-0.015,-0.231,-7.117,2.087,0.978,3.134,0.259
104.601,-0.139,0.085,-0.987,0.821,-0.010,-0.163,5.438,-0.774,1.978,1.524,-0.020,-0.187,-5.966,5.422,2.020,3.136,0.261
104.601,-0.139,0.085,-0.987,0.821,-0.010,-0.163,5.438,-0.774,1.978,1.524,-0.020,-0.187,-5.966,5.422,2.020,3.136,0.261
104.661,-0.159,0.095,-0.983,0.821,-0.013,-0.184,5.528,-0.775,1.971,1.506,-0.020,-0.025,-5.569,3.105,0.562,3.140,0.264
104.661,-0.159,0.095,-0.983,0.821,-0.013,-0.184,5.528,-0.775,1.971,1.506,-0.020,-0.025,-5.569,3.105,0.562,3.140,0.264
104.701,-0.178,0.092,-0.980,0.824,-0.025,-0.199,5.589,-0.776,1.972,1.566,-0.023,0.062,-6.901,5.585,-1.193,3.142,0.265
104.701,-0.178,0.092,-0.980,0.824,-0.025,-0.199,5.589,-0.776,1.972,1.566,-0.023,0.062,-6.901,5.585,-1.193,3.142,0.265
104.761,-0.171,0.085,-0.982,0.824,-0.027,-0.189,5.670,-0.815,1.972,1.704,-0.077,0.043,-9.494,6.675,0.132,3.121,0.259
104.761,-0.171,0.085,-0.982,0.824,-0.027,-0.189,5.670,-0.815,1.972,1.704,-0.077,0.043,-9.494,6.675,0.132,3.121,0.259
104.801,-0.160,0.070,-0.985,0.820,-0.034,-0.171,5.739,-0.819,1.973,1.776,-0.086,-0.003,-9.852,7.051,0.601,3.123,0.264
104.801,-0.160,0.070,-0.985,0.820,-0.034,-0.171,5.739,-0.819,1.973,1.776,-0.086,-0.003,-9.852,7.051,0.601,3.123,0.264
104.861,-0.126,0.042,-0.991,0.806,-0.041,-0.126,5.846,-0.825,1.967,1.750,-0.122,-0.197,-10.368,5.958,2.207,3.127,0.269
104.861,-0.126,0.042,-0.991,0.806,-0.041,-0.126,5.846,-0.825,1.967,1.750,-0.122,-0.197,-10.368,5.958,2.207,3.127,0.269
104.901,-0.109,0.025,-0.994,0.807,-0.044,-0.102,5.915,-0.830,1.959,1.688,-0.144,-0.249,-10.705,7.807,3.678,3.129,0.270
104.901,-0.109,0.025,-0.994,0.807,-0.044,-0.102,5.915,-0.830,1.959,1.688,-0.144,-0.249,-10.705,7.807,3.678,3.129,0.270
104.961,-0.099,0.017,-0.995,0.816,-0.043,-0.091,5.978,-0.797,2.025,1.571,-0.079,-0.293,-6.885,4.870,3.220,3.103,0.247
104.961,-0.099,0.017,-0.995,0.816,-0.043,-0.091,5.978,-0.797,2.025,1.571,-0.079,-0.293,-6.885,4.870,3.220,3.103,0.247
105.021,-0.124,0.021,-0.992,0.824,-0.053,-0.114,6.069,-0.799,2.008,1.478,-0.012,-0.271,-6.865,5.088,1.179,3.106,0.254
105.061,-0.148,0.021,-0.989,0.826,-0.067,-0.134,6.129,-0.800,1.999,1.518,-0.024,-0.179,-6.202,4.030,-0.470,3.109,0.256
105.061,-0.148,0.021,-0.989,0.826,-0.067,-0.134,6.129,-0.800,1.999,1.518,-0.024,-0.179,-6.202,4.030,-0.470,3.109,0.256
105.121,-0.150,0.024,-0.988,0.826,-0.065,-0.137,6.247,-0.766,1.948,1.655,-0.032,-0.024,-6.090,4.073,0.090,3.084,0.239
105.121,-0.150,0.024,-0.988,0.826,-0.065,-0.137,6.247,-0.766,1.948,1.655,-0.032,-0.024,-6.090,4.073,0.090,3.084,0.239
105.161,-0.135,0.028,-0.990,0.824,-0.054,-0.127,6.313,-0.768,1.949,1.678,-0.024,0.052,-6.628,5.289,1.065,3.087,0.241
105.161,-0.135,0.028,-0.990,0.824,-0.054,-0.127,6.313,-0.768,1.949,1.678,-0.024,0.052,-6.628,5.289,1.065,3.087,0.241
105.221,-0.119,0.036,-0.992,0.817,-0.040,-0.118,6.414,-0.768,1.954,1.669,-0.001,0.088,-7.964,5.452,1.426,3.090,0.244
105.221,-0.119,0.036,-0.992,0.817,-0.040,-0.118,6.414,-0.768,1.954,1.669,-0.001,0.088,-7.964,5.452,1.426,3.090,0.244
105.261,-0.114,0.033,-0.993,0.821,-0.038,-0.113,6.480,-0.768,1.957,1.667,0.019,0.047,-9.299,7.645,0.774,3.092,0.247
105.261,-0.114,0.033,-0.993,0.821,-0.038,-0.113,6.480,-0.768,1.957,1.667,0.019,0.047,-9.299,7.645,0.774,3.092,0.247
105.321,-0.109,0.019,-0.994,0.831,-0.045,-0.101,6.579,-0.771,2.031,1.794,0.065,-0.082,-9.291,7.237,-0.525,3.066,0.234
105.321,-0.109,0.019,-0.994,0.831,-0.045,-0.101,6.579,-0.771,2.031,1.794,0.065,-0.082,-9.291,7.237,-0.525,3.066,0.234
105.361,-0.087,0.019,-0.996,0.831,-0.033,-0.083,6.652,-0.768,2.026,1.828,0.060,-0.166,-9.863,5.971,1.203,3.068,0.237
105.361,-0.087,0.019,-0.996,0.831,-0.033,-0.083,6.652,-0.768,2.026,1.828,0.060,-0.166,-9.863,5.971,1.203,3.068,0.237
105.421,-0.048,0.012,-0.999,0.827,-0.017,-0.047,6.761,-0.765,2.014,1.814,0.074,-0.258,-9.960,7.136,-0.135,3.072,0.240
105.421,-0.048,0.012,-0.999,0.827,-0.017,-0.047,6.761,-0.765,2.014,1.814,0.074,-0.258,-9.960,7.136,-0.135,3.072,0.240
105.461,-0.019,0.019,-1.000,0.818,0.005,-0.026,6.833,-0.762,2.004,1.796,0.060,-0.262,-8.070,4.469,0.813,3.074,0.242
105.461,-0.019,0.019,-1.000,0.818,0.005,-0.026,6.833,-0.762,2.004,1.796,0.060,-0.262,-8.070,4.469,0.813,3.074,0.242
105.521,0.004,0.034,-0.999,0.811,0.030,-0.016,6.833,-0.746,2.003,1.595,0.029,-0.144,-5.829,2.869,2.948,3.046,0.228
105.521,0.004,0.034,-0.999,0.811,0.030,-0.016,6.833,-0.746,2.003,1.595,0.029,-0.144,-5.829,2.869,2.948,3.046,0.228
105.581,-0.043,0.027,-0.999,0.815,-0.003,-0.051,6.926,-0.743,2.000,1.533,0.059,0.022,-6.134,5.161,-0.090,3.049,0.237
105.581,-0.043,0.027,-0.999,0.815,-0.003,-0.051,6.926,-0.743,2.000,1.533,0.059,0.022,-6.134,5.161,-0.090,3.049,0.237
105.621,-0.076,0.026,-0.997,0.814,-0.023,-0.077,6.988,-0.741,2.003,1.589,0.077,0.118,-6.100,4.971,-1.116,3.052,0.237
105.621,-0.076,0.026,-0.997,0.814,-0.023,-0.077,6.988,-0.741,2.003,1.589,0.077,0.118,-6.100,4.971,-1.116,3.052,0.237
105.681,-0.091,0.025,-0.996,0.809,-0.034,-0.088,7.087,-0.736,2.012,1.706,0.069,0.152,-8.540,6.127,-1.219,3.055,0.234
105.681,-0.091,0.025,-0.996,0.809,-0.034,-0.088,7.087,-0.736,2.012,1.706,0.069,0.152,-8.540,6.127,-1.219,3.055,0.234
105.721,-0.078,0.026,-0.997,0.804,-0.026,-0.079,7.132,-0.746,1.984,1.761,0.030,0.145,-8.528,5.767,0.287,3.029,0.223
105.721,-0.078,0.026,-0.997,0.804,-0.026,-0.079,7.132,-0.746,1.984,1.761,0.030,0.145,-8.528,5.767,0.287,3.029,0.223
105.781,-0.061,0.007,-0.998,0.797,-0.031,-0.053,7.239,-0.745,1.990,1.777,-0.005,0.033,-10.238,6.811,0.549,3.032,0.227
105.781,-0.061,0.007,-0.998,0.797,-0.031,-0.053,7.239,-0.745,1.990,1.777,-0.005,0.033,-10.238,6.811,0.549,3.032,0.227
105.821,-0.046,-0.003,-0.999,0.795,-0.030,-0.035,7.309,-0.745,1.990,1.737,-0.019,-0.022,-8.772,6.130,0.991,3.034,0.229
105.821,-0.046,-0.003,-0.999,0.795,-0.030,-0.035,7.309,-0.745,1.990,1.737,-0.019,-0.022,-8.772,6.130,0.991,3.034,0.229
105.881,-0.041,-0.019,-0.999,0.806,-0.039,-0.022,7.412,-0.747,1.983,1.690,-0.015,-0.219,-9.143,6.813,1.838,3.037,0.235
105.881,-0.041,-0.019,-0.999,0.806,-0.039,-0.022,7.412,-0.747,1.983,1.690,-0.015,-0.219,-9.143,6.813,1.838,3.037,0.235
105.921,-0.042,-0.021,-0.999,0.811,-0.042,-0.021,7.456,-0.745,2.006,1.648,0.000,-0.204,-7.737,5.917,1.389,3.009,0.224
105.921,-0.042,-0.021,-0.999,0.811,-0.042,-0.021,7.456,-0.745,2.006,1.648,0.000,-0.204,-7.737,5.917,1.389,3.009,0.224
105.981,-0.059,-0.018,-0.998,0.812,-0.049,-0.038,7.553,-0.744,1.996,1.612,0.013,-0.115,-5.645,3.561,0.185,3.012,0.231
105.981,-0.059,-0.018,-0.998,0.812,-0.049,-0.038,7.553,-0.744,1.996,1.612,0.013,-0.115,-5.645,3.561,0.185,3.012,0.231
106.021,-0.072,-0.014,-0.997,0.817,-0.053,-0.050,7.618,-0.743,1.993,1.616,0.018,-0.034,-6.997,5.442,0.332,3.014,0.233
106.081,-0.085,-0.010,-0.996,0.817,-0.057,-0.063,7.716,-0.741,1.994,1.643,0.047,0.098,-5.132,4.040,-0.191,3.018,0.234
106.081,-0.085,-0.010,-0.996,0.817,-0.057,-0.063,7.716,-0.741,1.994,1.643,0.047,0.098,-5.132,4.040,-0.191,3.018,0.234
106.141,-0.097,-0.020,-0.995,0.817,-0.072,-0.068,7.791,-0.726,1.988,1.738,0.071,0.174,-7.604,5.726,-0.888,2.990,0.218
106.141,-0.097,-0.020,-0.995,0.817,-0.072,-0.068,7.791,-0.726,1.988,1.738,0.071,0.174,-7.604,5.726,-0.888,2.990,0.218
106.181,-0.091,-0.019,-0.996,0.818,-0.068,-0.064,7.861,-0.723,1.996,1.783,0.077,0.183,-8.523,6.844,-0.377,2.992,0.219
106.181,-0.091,-0.019,-0.996,0.818,-0.068,-0.064,7.861,-0.723,1.996,1.783,0.077,0.183,-8.523,6.844,-0.377,2.992,0.219
106.241,-0.078,-0.028,-0.997,0.821,-0.068,-0.048,7.970,-0.717,2.002,1.864,0.126,0.015,-9.736,7.522,-0.476,2.995,0.223
106.241,-0.078,-0.028,-0.997,0.821,-0.068,-0.048,7.970,-0.717,2.002,1.864,0.126,0.015,-9.736,7.522,-0.476,2.995,0.223
106.281,-0.059,-0.030,-0.998,0.819,-0.058,-0.031,8.046,-0.712,2.001,1.892,0.127,-0.061,-9.365,6.137,0.367,2.998,0.226
106.281,-0.059,-0.030,-0.998,0.819,-0.058,-0.031,8.046,-0.712,2.001,1.892,0.127,-0.061,-9.365,6.137,0.367,2.998,0.226
106.341,-0.040,-0.030,-0.999,0.819,-0.047,-0.016,8.144,-0.741,2.058,1.831,0.115,-0.249,-9.929,6.801,1.684,2.970,0.216
106.341,-0.040,-0.030,-0.999,0.819,-0.047,-0.016,8.144,-0.741,2.058,1.831,0.115,-0.249,-9.929,6.801,1.684,2.970,0.216
106.381,-0.039,-0.029,-0.999,0.811,-0.046,-0.014,8.215,-0.736,2.048,1.763,0.115,-0.261,-8.110,4.731,1.622,2.972,0.220
106.381,-0.039,-0.029,-0.999,0.811,-0.046,-0.014,8.215,-0.736,2.048,1.763,0.115,-0.261,-8.110,4.731,1.622,2.972,0.220
106.441,-0.055,-0.029,-0.998,0.798,-0.056,-0.027,8.320,-0.730,2.035,1.744,0.053,-0.133,-5.994,2.883,-0.256,2.975,0.223
106.441,-0.055,-0.029,-0.998,0.798,-0.056,-0.027,8.320,-0.730,2.035,1.744,0.053,-0.133,-5.994,2.883,-0.256,2.975,0.223
106.481,-0.061,-0.021,-0.998,0.797,-0.053,-0.036,8.391,-0.729,2.033,1.744,0.011,-0.010,-6.234,4.039,0.642,2.977,0.223
106.481,-0.061,-0.021,-0.998,0.797,-0.053,-0.036,8.391,-0.729,2.033,1.744,0.011,-0.010,-6.234,4.039,0.642,2.977,0.223
106.541,-0.067,-0.017,-0.998,0.798,-0.054,-0.043,8.508,-0.766,1.973,1.782,-0.016,0.162,-4.985,4.323,-0.532,2.949,0.212
106.541,-0.067,-0.017,-0.998,0.798,-0.054,-0.043,8.508,-0.766,1.973,1.782,-0.016,0.162,-4.985,4.323,-0.532,2.949,0.212
106.581,-0.065,-0.016,-0.998,0.798,-0.052,-0.042,8.580,-0.766,1.982,1.824,-0.008,0.237,-7.188,5.889,-0.290,2.951,0.211
106.581,-0.065,-0.016,-0.998,0.798,-0.052,-0.042,8.580,-0.766,1.982,1.824,-0.008,0.237,-7.188,5.889,-0.290,2.951,0.211
106.641,-0.053,-0.022,-0.998,0.797,-0.049,-0.030,8.691,-0.767,1.997,1.849,-0.015,0.230,-8.701,6.371,-0.225,2.954,0.213
106.641,-0.053,-0.022,-0.998,0.797,-0.049,-0.030,8.691,-0.767,1.997,1.849,-0.015,0.230,-8.701,6.371,-0.225,2.954,0.213
106.701,-0.041,-0.041,-0.998,0.801,-0.057,-0.009,8.803,-0.768,2.008,1.889,-0.013,0.115,-9.745,7.500,0.734,2.957,0.216
106.701,-0.041,-0.041,-0.998,0.801,-0.057,-0.009,8.803,-0.768,2.008,1.889,-0.013,0.115,-9.745,7.500,0.734,2.957,0.216
106.741,-0.034,-0.064,-0.997,0.800,-0.072,0.010,8.831,-0.775,2.088,1.857,-0.022,0.020,-10.052,7.329,-0.273,2.930,0.209
106.741,-0.034,-0.064,-0.997,0.800,-0.072,0.010,8.831,-0.775,2.088,1.857,-0.022,0.020,-10.052,7.329,-0.273,2.930,0.209
106.801,-0.042,-0.091,-0.995,0.805,-0.098,0.020,8.942,-0.776,2.085,1.823,-0.014,-0.146,-9.728,6.191,0.394,2.933,0.213
106.801,-0.042,-0.091,-0.995,0.805,-0.098,0.020,8.942,-0.776,2.085,1.823,-0.014,-0.146,-9.728,6.191,0.394,2.933,0.213
106.841,-0.045,-0.097,-0.994,0.806,-0.105,0.020,9.014,-0.777,2.079,1.793,-0.057,-0.128,-7.461,3.938,0.866,2.935,0.216
106.841,-0.045,-0.097,-0.994,0.806,-0.105,0.020,9.014,-0.777,2.079,1.793,-0.057,-0.128,-7.461,3.938,0.866,2.935,0.216
106.901,-0.053,-0.100,-0.994,0.814,-0.112,0.014,9.120,-0.780,2.074,1.745,-0.049,-0.011,-4.858,4.038,-0.431,2.937,0.223
106.941,-0.060,-0.090,-0.994,0.819,-0.108,0.001,9.192,-0.737,2.056,1.780,0.010,0.100,-6.425,5.682,0.723,2.908,0.207
106.941,-0.060,-0.090,-0.994,0.819,-0.108,0.001,9.192,-0.737,2.056,1.780,0.010,0.100,-6.425,5.682,0.723,2.908,0.207
107.001,-0.082,-0.082,-0.993,0.818,-0.114,-0.021,9.298,-0.735,2.065,1.766,0.062,0.213,-5.837,4.763,-0.211,2.910,0.212
107.001,-0.082,-0.082,-0.993,0.818,-0.114,-0.021,9.298,-0.735,2.065,1.766,0.062,0.213,-5.837,4.763,-0.211,2.910,0.212
107.041,-0.107,-0.086,-0.991,0.818,-0.131,-0.039,9.370,-0.732,2.075,1.813,0.098,0.274,-7.095,6.065,-1.084,2.912,0.212
107.041,-0.107,-0.086,-0.991,0.818,-0.131,-0.039,9.370,-0.732,2.075,1.813,0.098,0.274,-7.095,6.065,-1.084,2.912,0.212
107.101,-0.126,-0.094,-0.988,0.822,-0.149,-0.052,9.482,-0.725,2.091,1.929,0.139,0.203,-9.578,7.858,-1.310,2.915,0.212
107.101,-0.126,-0.094,-0.988,0.822,-0.149,-0.052,9.482,-0.725,2.091,1.929,0.139,0.203,-9.578,7.858,-1.310,2.915,0.212
107.141,-0.122,-0.104,-0.987,0.824,-0.154,-0.043,9.570,-0.745,2.175,2.025,0.155,0.128,-9.807,7.944,-0.853,2.888,0.207
107.141,-0.122,-0.104,-0.987,0.824,-0.154,-0.043,9.570,-0.745,2.175,2.025,0.155,0.128,-9.807,7.944,-0.853,2.888,0.207
107.201,-0.081,-0.112,-0.990,0.819,-0.139,-0.004,9.693,-0.735,2.178,2.047,0.177,-0.034,-10.199,6.226,0.667,2.891,0.214
107.201,-0.081,-0.112,-0.990,0.819,-0.139,-0.004,9.693,-0.735,2.178,2.047,0.177,-0.034,-10.199,6.226,0.667,2.891,0.214
107.241,-0.054,-0.113,-0.992,0.814,-0.123,0.020,9.773,-0.728,2.175,1.977,0.161,-0.120,-10.308,6.190,1.788,2.893,0.214
107.241,-0.054,-0.113,-0.992,0.814,-0.123,0.020,9.773,-0.728,2.175,1.977,0.161,-0.120,-10.308,6.190,1.788,2.893,0.214
107.301,-0.043,-0.111,-0.993,0.804,-0.115,0.030,9.888,-0.719,2.166,1.834,0.117,-0.126,-7.357,3.911,2.280,2.895,0.217
107.301,-0.043,-0.111,-0.993,0.804,-0.115,0.030,9.888,-0.719,2.166,1.834,0.117,-0.126,-7.357,3.911,2.280,2.895,0.217
107.361,-0.079,-0.099,-0.992,0.800,-0.127,-0.005,10.073,-0.695,2.250,1.776,0.104,0.019,-6.817,3.415,1.260,2.868,0.217
107.361,-0.079,-0.099,-0.992,0.800,-0.127,-0.005,10.073,-0.695,2.250,1.776,0.104,0.019,-6.817,3.415,1.260,2.868,0.217
107.401,-0.115,-0.102,-0.988,0.803,-0.150,-0.034,10.143,-0.691,2.254,1.772,0.086,0.138,-5.034,3.626,-0.888,2.870,0.221
107.401,-0.115,-0.102,-0.988,0.803,-0.150,-0.034,10.143,-0.691,2.254,1.772,0.086,0.138,-5.034,3.626,-0.888,2.870,0.221
107.461,-0.152,-0.106,-0.983,0.816,-0.174,-0.066,10.252,-0.686,2.268,1.879,0.089,0.330,-5.567,3.891,-2.050,2.873,0.215
107.461,-0.152,-0.106,-0.983,0.816,-0.174,-0.066,10.252,-0.686,2.268,1.879,0.089,0.330,-5.567,3.891,-2.050,2.873,0.215
107.501,-0.153,-0.106,-0.983,0.824,-0.173,-0.069,10.329,-0.682,2.283,1.958,0.103,0.415,-6.841,6.180,-1.042,2.874,0.210
107.501,-0.153,-0.106,-0.983,0.824,-0.173,-0.069,10.329,-0.682,2.283,1.958,0.103,0.415,-6.841,6.180,-1.042,2.874,0.210
107.561,-0.139,-0.104,-0.985,0.825,-0.163,-0.059,10.499,-0.723,2.434,2.057,0.103,0.431,-8.326,6.157,0.946,2.849,0.203
107.561,-0.139,-0.104,-0.985,0.825,-0.163,-0.059,10.499,-0.723,2.434,2.057,0.103,0.431,-8.326,6.157,0.946,2.849,0.203
107.601,-0.135,-0.122,-0.983,0.823,-0.176,-0.045,10.581,-0.718,2.450,2.053,0.141,0.335,-10.653,8.114,0.905,2.851,0.206
107.601,-0.135,-0.122,-0.983,0.823,-0.176,-0.045,10.581,-0.718,2.450,2.053,0.141,0.335,-10.653,8.114,0.905,2.851,0.206
107.661,-0.122,-0.158,-0.980,0.820,-0.199,-0.015,10.704,-0.708,2.464,2.022,0.200,0.123,-11.330,9.070,1.771,2.853,0.214
107.661,-0.122,-0.158,-0.980,0.820,-0.199,-0.015,10.704,-0.708,2.464,2.022,0.200,0.123,-11.330,9.070,1.771,2.853,0.214
107.701,-0.117,-0.183,-0.976,0.818,-0.217,0.001,10.784,-0.698,2.466,1.942,0.265,-0.053,-9.811,7.962,2.707,2.855,0.223
107.761,-0.128,-0.202,-0.971,0.811,-0.239,0.004,10.873,-0.737,2.576,1.774,0.252,-0.076,-8.856,6.176,2.734,2.830,0.237
107.761,-0.128,-0.202,-0.971,0.811,-0.239,0.004,10.873,-0.737,2.576,1.774,0.252,-0.076,-8.856,6.176,2.734,2.830,0.237
107.801,-0.152,-0.208,-0.966,0.806,-0.257,-0.011,10.942,-0.727,2.573,1.695,0.238,-0.106,-8.444,4.499,1.063,2.832,0.250
107.801,-0.152,-0.208,-0.966,0.806,-0.257,-0.011,10.942,-0.727,2.573,1.695,0.238,-0.106,-8.444,4.499,1.063,2.832,0.250
107.861,-0.193,-0.225,-0.955,0.804,-0.294,-0.039,11.042,-0.713,2.570,1.651,0.232,0.006,-5.721,4.560,0.062,2.835,0.259
107.861,-0.193,-0.225,-0.955,0.804,-0.294,-0.039,11.042,-0.713,2.570,1.651,0.232,0.006,-5.721,4.560,0.062,2.835,0.259
107.921,-0.239,-0.253,-0.937,0.801,-0.342,-0.068,11.134,-0.710,2.635,1.708,0.250,0.255,-4.898,3.724,-1.688,2.809,0.237
107.921,-0.239,-0.253,-0.937,0.801,-0.342,-0.068,11.134,-0.710,2.635,1.708,0.250,0.255,-4.898,3.724,-1.688,2.809,0.237
107.961,-0.259,-0.268,-0.928,0.800,-0.364,-0.080,11.204,-0.699,2.648,1.789,0.294,0.355,-6.700,5.412,-1.476,2.811,0.233
107.961,-0.259,-0.268,-0.928,0.800,-0.364,-0.080,11.204,-0.699,2.648,1.789,0.294,0.355,-6.700,5.412,-1.476,2.811,0.233
108.021,-0.270,-0.283,-0.920,0.793,-0.383,-0.080,11.315,-0.679,2.671,1.906,0.361,0.366,-9.523,7.350,-0.606,2.814,0.234
108.021,-0.270,-0.283,-0.920,0.793,-0.383,-0.080,11.315,-0.679,2.671,1.906,0.361,0.366,-9.523,7.350,-0.606,2.814,0.234
108.061,-0.272,-0.297,-0.915,0.786,-0.396,-0.072,11.392,-0.664,2.683,1.964,0.418,0.234,-10.280,7.536,-0.690,2.816,0.240
108.061,-0.272,-0.297,-0.915,0.786,-0.396,-0.072,11.392,-0.664,2.683,1.964,0.418,0.234,-10.280,7.536,-0.690,2.816,0.240
108.121,-0.251,-0.311,-0.917,0.779,-0.397,-0.045,11.501,-0.708,2.824,1.978,0.395,0.115,-11.055,8.074,0.850,2.792,0.235
108.121,-0.251,-0.311,-0.917,0.779,-0.397,-0.045,11.501,-0.708,2.824,1.978,0.395,0.115,-11.055,8.074,0.850,2.792,0.235
108.161,-0.235,-0.314,-0.920,0.770,-0.392,-0.023,11.580,-0.692,2.826,1.972,0.410,-0.002,-9.523,6.153,1.060,2.794,0.241
108.161,-0.235,-0.314,-0.920,0.770,-0.392,-0.023,11.580,-0.692,2.826,1.972,0.410,-0.002,-9.523,6.153,1.060,2.794,0.241
108.221,-0.218,-0.311,-0.925,0.755,-0.380,0.001,11.696,-0.668,2.825,1.891,0.375,-0.050,-8.340,5.009,1.799,2.797,0.242
108.221,-0.218,-0.311,-0.925,0.755,-0.380,0.001,11.696,-0.668,2.825,1.891,0.375,-0.050,-8.340,5.009,1.799,2.797,0.242
108.261,-0.224,-0.308,-0.925,0.746,-0.381,0.002,11.771,-0.654,2.824,1.848,0.320,0.029,-6.410,3.135,1.299,2.799,0.240
108.261,-0.224,-0.308,-0.925,0.746,-0.381,0.002,11.771,-0.654,2.824,1.848,0.320,0.029,-6.410,3.135,1.299,2.799,0.240
108.321,-0.250,-0.312,-0.916,0.743,-0.400,-0.018,11.899,-0.683,2.903,1.865,0.222,0.191,-6.585,3.853,-0.140,2.773,0.221
108.321,-0.250,-0.312,-0.916,0.743,-0.400,-0.018,11.899,-0.683,2.903,1.865,0.222,0.191,-6.585,3.853,-0.140,2.773,0.221
108.361,-0.265,-0.315,-0.911,0.746,-0.410,-0.032,11.974,-0.675,2.913,1.890,0.203,0.289,-5.944,3.827,-0.419,2.775,0.220
108.361,-0.265,-0.315,-0.911,0.746,-0.410,-0.032,11.974,-0.675,2.913,1.890,0.203,0.289,-5.944,3.827,-0.419,2.775,0.220
108.421,-0.275,-0.325,-0.905,0.751,-0.424,-0.042,12.089,-0.662,2.935,1.962,0.240,0.417,-6.366,4.912,-1.552,2.778,0.221
108.421,-0.275,-0.325,-0.905,0.751,-0.424,-0.042,12.089,-0.662,2.935,1.962,0.240,0.417,-6.366,4.912,-1.552,2.778,0.221
108.481,-0.272,-0.337,-0.901,0.751,-0.432,-0.035,12.210,-0.645,2.961,2.043,0.325,0.428,-8.050,6.655,-1.570,2.781,0.228
108.481,-0.272,-0.337,-0.901,0.751,-0.432,-0.035,12.210,-0.645,2.961,2.043,0.325,0.428,-8.050,6.655,-1.570,2.781,0.228
108.521,-0.259,-0.344,-0.902,0.744,-0.431,-0.017,12.275,-0.642,3.060,2.090,0.349,0.428,-9.213,6.643,-0.831,2.755,0.225
108.521,-0.259,-0.344,-0.902,0.744,-0.431,-0.017,12.275,-0.642,3.060,2.090,0.349,0.428,-9.213,6.643,-0.831,2.755,0.225
108.581,-0.231,-0.356,-0.906,0.730,-0.423,0.022,12.400,-0.620,3.080,2.061,0.351,0.233,-10.776,7.452,1.225,2.759,0.230
108.581,-0.231,-0.356,-0.906,0.730,-0.423,0.022,12.400,-0.620,3.080,2.061,0.351,0.233,-10.776,7.452,1.225,2.759,0.230
108.621,-0.223,-0.367,-0.903,0.723,-0.428,0.038,12.482,-0.607,3.088,2.017,0.313,0.134,-10.841,7.095,1.565,2.761,0.228
108.621,-0.223,-0.367,-0.903,0.723,-0.428,0.038,12.482,-0.607,3.088,2.017,0.313,0.134,-10.841,7.095,1.565,2.761,0.228
108.681,-0.221,-0.382,-0.898,0.721,-0.438,0.046,12.599,-0.590,3.091,1.908,0.263,-0.002,-7.966,5.658,1.433,2.764,0.229
108.681,-0.221,-0.382,-0.898,0.721,-0.438,0.046,12.599,-0.590,3.091,1.908,0.263,-0.002,-7.966,5.658,1.433,2.764,0.229
108.721,-0.231,-0.394,-0.890,0.726,-0.455,0.035,12.674,-0.606,3.184,1.855,0.253,0.048,-6.546,5.988,0.064,2.738,0.222
108.721,-0.231,-0.394,-0.890,0.726,-0.455,0.035,12.674,-0.606,3.184,1.855,0.253,0.048,-6.546,5.988,0.064,2.738,0.222
108.781,-0.254,-0.397,-0.882,0.738,-0.472,0.004,12.785,-0.588,3.191,1.844,0.324,0.187,-6.196,5.151,-0.481,2.741,0.231
108.781,-0.254,-0.397,-0.882,0.738,-0.472,0.004,12.785,-0.588,3.191,1.844,0.324,0.187,-6.196,5.151,-0.481,2.741,0.231
108.821,-0.272,-0.398,-0.876,0.742,-0.482,-0.016,12.858,-0.574,3.201,1.845,0.367,0.270,-5.847,4.395,-0.048,2.743,0.236
108.821,-0.272,-0.398,-0.876,0.742,-0.482,-0.016,12.858,-0.574,3.201,1.845,0.367,0.270,-5.847,4.395,-0.048,2.743,0.236
108.881,-0.295,-0.412,-0.862,0.741,-0.505,-0.037,12.971,-0.551,3.223,1.916,0.400,0.451,-6.640,4.303,-1.735,2.746,0.239
108.921,-0.304,-0.428,-0.851,0.733,-0.523,-0.038,13.070,-0.517,3.324,2.036,0.477,0.556,-6.685,5.053,-2.389,2.720,0.229
108.921,-0.304,-0.428,-0.851,0.733,-0.523,-0.038,13.070,-0.517,3.324,2.036,0.477,0.556,-6.685,5.053,-2.389,2.720,0.229
108.981,-0.302,-0.463,-0.833,0.717,-0.553,-0.019,13.195,-0.484,3.356,2.154,0.621,0.442,-10.532,8.298,-2.648,2.724,0.247
108.981,-0.302,-0.463,-0.833,0.717,-0.553,-0.019,13.195,-0.484,3.356,2.154,0.621,0.442,-10.532,8.298,-2.648,2.724,0.247
109.041,-0.251,-0.467,-0.848,0.708,-0.529,0.041,13.329,-0.444,3.377,2.264,0.697,0.266,-10.920,6.916,-0.830,2.727,0.266
109.041,-0.251,-0.467,-0.848,0.708,-0.529,0.041,13.329,-0.444,3.377,2.264,0.697,0.266,-10.920,6.916,-0.830,2.727,0.266
109.081,-0.209,-0.464,-0.861,0.704,-0.502,0.086,13.419,-0.416,3.385,2.243,0.673,0.139,-10.496,5.729,0.598,2.729,0.267
109.081,-0.209,-0.464,-0.861,0.704,-0.502,0.086,13.419,-0.416,3.385,2.243,0.673,0.139,-10.496,5.729,0.598,2.729,0.267
109.141,-0.160,-0.458,-0.875,0.706,-0.467,0.131,13.510,-0.348,3.524,2.085,0.587,0.099,-9.230,5.888,2.151,2.704,0.232
109.141,-0.160,-0.458,-0.875,0.706,-0.467,0.131,13.510,-0.348,3.524,2.085,0.587,0.099,-9.230,5.888,2.151,2.704,0.232
109.181,-0.154,-0.469,-0.870,0.698,-0.472,0.145,13.592,-0.325,3.528,2.003,0.519,0.059,-9.507,4.188,0.567,2.706,0.228
109.181,-0.154,-0.469,-0.870,0.698,-0.472,0.145,13.592,-0.325,3.528,2.003,0.519,0.059,-9.507,4.188,0.567,2.706,0.228
109.241,-0.126,-0.500,-0.857,0.708,-0.488,0.166,13.710,-0.300,3.532,1.951,0.331,0.068,-8.890,4.540,-0.680,2.709,0.219
109.241,-0.126,-0.500,-0.857,0.708,-0.488,0.166,13.710,-0.300,3.532,1.951,0.331,0.068,-8.890,4.540,-0.680,2.709,0.219
109.281,-0.120,-0.520,-0.846,0.727,-0.512,0.150,13.787,-0.287,3.535,1.899,0.362,0.079,-6.082,5.105,-0.959,2.712,0.222
109.281,-0.120,-0.520,-0.846,0.727,-0.512,0.150,13.787,-0.287,3.535,1.899,0.362,0.079,-6.082,5.105,-0.959,2.712,0.222
109.341,-0.127,-0.532,-0.837,0.740,-0.533,0.125,13.837,-0.193,3.630,1.825,0.582,0.270,-4.402,5.820,-1.716,2.686,0.222
109.341,-0.127,-0.532,-0.837,0.740,-0.533,0.125,13.837,-0.193,3.630,1.825,0.582,0.270,-4.402,5.820,-1.716,2.686,0.222
109.381,-0.145,-0.529,-0.836,0.733,-0.537,0.115,13.910,-0.167,3.644,1.822,0.712,0.435,-3.735,4.438,-1.668,2.689,0.235
109.381,-0.145,-0.529,-0.836,0.733,-0.537,0.115,13.910,-0.167,3.644,1.822,0.712,0.435,-3.735,4.438,-1.668,2.689,0.235
109.441,-0.190,-0.523,-0.831,0.706,-0.547,0.101,14.019,-0.121,3.677,1.816,0.796,0.570,-9.207,5.213,-1.084,2.692,0.249
109.441,-0.190,-0.523,-0.831,0.706,-0.547,0.101,14.019,-0.121,3.677,1.816,0.796,0.570,-9.207,5.213,-1.084,2.692,0.249
109.481,-0.220,-0.520,-0.826,0.683,-0.556,0.096,14.092,-0.090,3.700,1.871,0.765,0.559,-9.105,2.890,-1.712,2.694,0.248
109.481,-0.220,-0.520,-0.826,0.683,-0.556,0.096,14.092,-0.090,3.700,1.871,0.765,0.559,-9.105,2.890,-1.712,2.694,0.248
109.541,-0.230,-0.546,-0.806,0.657,-0.581,0.111,14.156,-0.069,3.788,1.831,0.676,0.359,-12.704,7.645,-0.886,2.670,0.227
109.541,-0.230,-0.546,-0.806,0.657,-0.581,0.111,14.156,-0.069,3.788,1.831,0.676,0.359,-12.704,7.645,-0.886,2.670,0.227
109.601,-0.217,-0.577,-0.787,0.641,-0.602,0.135,14.266,-0.029,3.805,1.835,0.644,0.206,-10.477,6.920,0.144,2.674,0.226
109.601,-0.217,-0.577,-0.787,0.641,-0.602,0.135,14.266,-0.029,3.805,1.835,0.644,0.206,-10.477,6.920,0.144,2.674,0.226
109.641,-0.206,-0.596,-0.776,0.635,-0.613,0.149,14.338,-0.004,3.812,1.757,0.643,0.142,-8.309,5.905,0.019,2.676,0.230
109.641,-0.206,-0.596,-0.776,0.635,-0.613,0.149,14.338,-0.004,3.812,1.757,0.643,0.142,-8.309,5.905,0.019,2.676,0.230
109.701,-0.217,-0.598,-0.771,0.634,-0.621,0.138,14.440,0.035,3.821,1.634,0.623,0.175,-7.936,5.138,0.754,2.679,0.237
109.701,-0.217,-0.598,-0.771,0.634,-0.621,0.138,14.440,0.035,3.821,1.634,0.623,0.175,-7.936,5.138,0.754,2.679,0.237
109.741,-0.249,-0.603,-0.758,0.620,-0.642,0.118,14.499,0.040,3.859,1.604,0.576,0.224,-7.563,3.768,-0.928,2.653,0.224
109.741,-0.249,-0.603,-0.758,0.620,-0.642,0.118,14.499,0.040,3.859,1.604,0.576,0.224,-7.563,3.768,-0.928,2.653,0.224
109.801,-0.290,-0.616,-0.732,0.599,-0.675,0.092,14.597,0.075,3.877,1.692,0.580,0.406,-5.265,1.798,-2.225,2.656,0.221
109.801,-0.290,-0.616,-0.732,0.599,-0.675,0.092,14.597,0.075,3.877,1.692,0.580,0.406,-5.265,1.798,-2.225,2.656,0.221
109.841,-0.302,-0.625,-0.719,0.591,-0.690,0.083,14.667,0.098,3.897,1.769,0.614,0.548,-5.903,3.352,-2.459,2.658,0.219
109.841,-0.302,-0.625,-0.719,0.591,-0.690,0.083,14.667,0.098,3.897,1.769,0.614,0.548,-5.903,3.352,-2.459,2.658,0.219
109.901,-0.304,-0.627,-0.717,0.591,-0.692,0.080,14.775,0.138,3.934,1.848,0.716,0.633,-8.358,5.439,-1.953,2.661,0.224
109.901,-0.304,-0.627,-0.717,0.591,-0.692,0.080,14.775,0.138,3.934,1.848,0.716,0.633,-8.358,5.439,-1.953,2.661,0.224
109.941,-0.301,-0.622,-0.723,0.595,-0.686,0.081,14.850,0.135,3.987,1.873,0.729,0.598,-9.918,5.928,-1.760,2.637,0.219
109.941,-0.301,-0.622,-0.723,0.595,-0.686,0.081,14.850,0.135,3.987,1.873,0.729,0.598,-9.918,5.928,-1.760,2.637,0.219
110.001,-0.287,-0.617,-0.733,0.605,-0.675,0.088,14.963,0.179,4.019,1.898,0.762,0.432,-11.461,7.122,-1.596,2.640,0.223
110.001,-0.287,-0.617,-0.733,0.605,-0.675,0.088,14.963,0.179,4.019,1.898,0.762,0.432,-11.461,7.122,-1.596,2.640,0.223
110.041,-0.273,-0.614,-0.741,0.612,-0.665,0.096,15.039,0.210,4.033,1.907,0.789,0.291,-10.655,6.267,-1.742,2.642,0.227
110.041,-0.273,-0.614,-0.741,0.612,-0.665,0.096,15.039,0.210,4.033,1.907,0.789,0.291,-10.655,6.267,-1.742,2.642,0.227
110.101,-0.247,-0.596,-0.764,0.625,-0.634,0.118,15.153,0.258,4.047,1.843,0.783,0.157,-10.025,6.998,0.531,2.646,0.230
110.141,-0.254,-0.589,-0.767,0.621,-0.631,0.117,15.163,0.261,4.111,1.743,0.724,0.146,-8.034,4.507,0.400,2.621,0.218
110.141,-0.254,-0.589,-0.767,0.621,-0.631,0.117,15.163,0.261,4.111,1.743,0.724,0.146,-8.034,4.507,0.400,2.621,0.218
110.141,-0.254,-0.589,-0.767,0.621,-0.631,0.117,15.163,0.261,4.111,1.743,0.724,0.146,-8.034,4.507,0.400,2.621,0.218
110.201,-0.280,-0.594,-0.755,0.610,-0.648,0.100,15.267,0.303,4.123,1.751,0.680,0.282,-5.921,2.791,-0.632,2.624,0.216
110.201,-0.280,-0.594,-0.755,0.610,-0.648,0.100,15.267,0.303,4.123,1.751,0.680,0.282,-5.921,2.791,-0.632,2.624,0.216
110.261,-0.306,-0.597,-0.742,0.607,-0.667,0.072,15.372,0.343,4.145,1.750,0.665,0.452,-5.581,3.529,-0.461,2.627,0.216
110.301,-0.328,-0.596,-0.733,0.606,-0.678,0.049,15.443,0.370,4.167,1.775,0.678,0.599,-6.011,3.340,-0.772,2.629,0.216
110.301,-0.328,-0.596,-0.733,0.606,-0.678,0.049,15.443,0.370,4.167,1.775,0.678,0.599,-6.011,3.340,-0.772,2.629,0.216
110.361,-0.357,-0.599,-0.717,0.603,-0.697,0.017,15.579,0.397,4.245,1.872,0.720,0.724,-7.386,4.040,-2.354,2.606,0.209
110.361,-0.357,-0.599,-0.717,0.603,-0.697,0.017,15.579,0.397,4.245,1.872,0.720,0.724,-7.386,4.040,-2.354,2.606,0.209
110.401,-0.361,-0.601,-0.713,0.602,-0.701,0.013,15.656,0.427,4.275,1.926,0.780,0.730,-9.058,6.308,-1.499,2.608,0.214
110.401,-0.361,-0.601,-0.713,0.602,-0.701,0.013,15.656,0.427,4.275,1.926,0.780,0.730,-9.058,6.308,-1.499,2.608,0.214
110.461,-0.362,-0.601,-0.713,0.589,-0.701,0.028,15.771,0.475,4.316,1.958,0.810,0.619,-11.146,6.340,-0.378,2.611,0.220
110.461,-0.362,-0.601,-0.713,0.589,-0.701,0.028,15.771,0.475,4.316,1.958,0.810,0.619,-11.146,6.340,-0.378,2.611,0.220
110.501,-0.355,-0.607,-0.711,0.578,-0.702,0.048,15.850,0.507,4.338,1.960,0.783,0.447,-11.790,6.976,0.310,2.613,0.220
110.501,-0.355,-0.607,-0.711,0.578,-0.702,0.048,15.850,0.507,4.338,1.960,0.783,0.447,-11.790,6.976,0.310,2.613,0.220
110.561,-0.341,-0.622,-0.705,0.572,-0.706,0.064,15.943,0.534,4.437,1.925,0.702,0.290,-10.663,6.843,1.002,2.591,0.209
110.561,-0.341,-0.622,-0.705,0.572,-0.706,0.064,15.943,0.534,4.437,1.925,0.702,0.290,-10.663,6.843,1.002,2.591,0.209
110.601,-0.334,-0.626,-0.705,0.578,-0.707,0.063,16.019,0.562,4.448,1.875,0.662,0.232,-8.373,5.657,0.955,2.593,0.207
110.601,-0.334,-0.626,-0.705,0.578,-0.707,0.063,16.019,0.562,4.448,1.875,0.662,0.232,-8.373,5.657,0.955,2.593,0.207
110.661,-0.338,-0.617,-0.711,0.597,-0.703,0.037,16.129,0.601,4.462,1.780,0.664,0.248,-7.248,5.907,0.537,2.597,0.209
110.661,-0.338,-0.617,-0.711,0.597,-0.703,0.037,16.129,0.601,4.462,1.780,0.664,0.248,-7.248,5.907,0.537,2.597,0.209
110.701,-0.355,-0.607,-0.711,0.602,-0.703,0.017,16.199,0.628,4.473,1.744,0.674,0.295,-6.786,4.638,-0.203,2.599,0.212
110.701,-0.355,-0.607,-0.711,0.602,-0.703,0.017,16.199,0.628,4.473,1.744,0.674,0.295,-6.786,4.638,-0.203,2.599,0.212
110.761,-0.382,-0.598,-0.704,0.602,-0.710,-0.012,16.248,0.664,4.464,1.751,0.694,0.473,-5.450,2.719,-1.007,2.573,0.200
110.761,-0.382,-0.598,-0.704,0.602,-0.710,-0.012,16.248,0.664,4.464,1.751,0.694,0.473,-5.450,2.719,-1.007,2.573,0.200
110.821,-0.393,-0.609,-0.689,0.594,-0.725,-0.021,16.356,0.709,4.499,1.874,0.831,0.631,-7.214,5.713,-3.485,2.576,0.206
110.821,-0.393,-0.609,-0.689,0.594,-0.725,-0.021,16.356,0.709,4.499,1.874,0.831,0.631,-7.214,5.713,-3.485,2.576,0.206
110.861,-0.378,-0.608,-0.698,0.595,-0.716,-0.003,16.432,0.744,4.524,1.914,0.915,0.631,-8.676,6.054,-0.919,2.579,0.216
110.861,-0.378,-0.608,-0.698,0.595,-0.716,-0.003,16.432,0.744,4.524,1.914,0.915,0.631,-8.676,6.054,-0.919,2.579,0.216
110.921,-0.345,-0.608,-0.715,0.597,-0.698,0.035,16.540,0.742,4.618,1.897,0.914,0.556,-10.580,7.419,-0.029,2.557,0.212
110.921,-0.345,-0.608,-0.715,0.597,-0.698,0.035,16.540,0.742,4.618,1.897,0.914,0.556,-10.580,7.419,-0.029,2.557,0.212
110.961,-0.325,-0.609,-0.724,0.598,-0.688,0.056,16.615,0.779,4.638,1.856,0.911,0.434,-10.189,6.892,0.282,2.559,0.213
110.961,-0.325,-0.609,-0.724,0.598,-0.688,0.056,16.615,0.779,4.638,1.856,0.911,0.434,-10.189,6.892,0.282,2.559,0.213
111.021,-0.310,-0.620,-0.720,0.598,-0.690,0.067,16.725,0.833,4.660,1.806,0.909,0.286,-11.173,8.103,0.482,2.562,0.214
111.021,-0.310,-0.620,-0.720,0.598,-0.690,0.067,16.725,0.833,4.660,1.806,0.909,0.286,-11.173,8.103,0.482,2.562,0.214
111.061,-0.309,-0.618,-0.723,0.589,-0.686,0.082,16.796,0.869,4.669,1.735,0.886,0.152,-10.100,6.259,0.946,2.564,0.215
111.101,-0.315,-0.606,-0.730,0.579,-0.677,0.094,16.864,0.903,4.675,1.691,0.805,0.139,-8.478,4.407,1.457,2.566,0.213
111.121,-0.322,-0.606,-0.727,0.570,-0.680,0.096,16.971,0.970,4.797,1.731,0.801,0.192,-6.976,3.167,0.691,2.541,0.200
111.161,-0.341,-0.610,-0.715,0.559,-0.694,0.086,17.040,1.001,4.807,1.762,0.755,0.347,-5.188,2.129,-0.890,2.543,0.198
111.161,-0.341,-0.610,-0.715,0.559,-0.694,0.086,17.040,1.001,4.807,1.762,0.755,0.347,-5.188,2.129,-0.890,2.543,0.198
111.221,-0.371,-0.626,-0.686,0.549,-0.726,0.056,17.148,1.046,4.834,1.835,0.778,0.506,-6.261,3.739,-1.943,2.546,0.198
111.221,-0.371,-0.626,-0.686,0.549,-0.726,0.056,17.148,1.046,4.834,1.835,0.778,0.506,-6.261,3.739,-1.943,2.546,0.198
111.261,-0.385,-0.634,-0.670,0.541,-0.741,0.043,17.223,1.078,4.857,1.903,0.815,0.632,-5.697,2.774,-2.355,2.548,0.200
111.261,-0.385,-0.634,-0.670,0.541,-0.741,0.043,17.223,1.078,4.857,1.903,0.815,0.632,-5.697,2.774,-2.355,2.548,0.200
111.321,-0.386,-0.648,-0.657,0.535,-0.752,0.043,17.323,1.143,4.975,1.980,0.873,0.722,-7.754,4.708,-1.688,2.527,0.198
111.321,-0.386,-0.648,-0.657,0.535,-0.752,0.043,17.323,1.143,4.975,1.980,0.873,0.722,-7.754,4.708,-1.688,2.527,0.198
111.381,-0.372,-0.660,-0.653,0.529,-0.755,0.059,17.444,1.197,5.020,2.024,0.913,0.726,-10.126,6.569,-0.463,2.530,0.204
111.381,-0.372,-0.660,-0.653,0.529,-0.755,0.059,17.444,1.197,5.020,2.024,0.913,0.726,-10.126,6.569,-0.463,2.530,0.204
111.421,-0.357,-0.662,-0.658,0.521,-0.748,0.087,17.524,1.233,5.047,2.003,0.901,0.616,-10.800,6.840,0.423,2.532,0.205
111.421,-0.357,-0.662,-0.658,0.521,-0.748,0.087,17.524,1.233,5.047,2.003,0.901,0.616,-10.800,6.840,0.423,2.532,0.205
111.481,-0.344,-0.660,-0.668,0.518,-0.736,0.110,17.644,1.284,5.080,1.965,0.755,0.431,-13.142,7.431,2.150,2.535,0.201
111.481,-0.344,-0.660,-0.668,0.518,-0.736,0.110,17.644,1.284,5.080,1.965,0.755,0.431,-13.142,7.431,2.150,2.535,0.201
111.521,-0.342,-0.668,-0.661,0.519,-0.743,0.105,17.686,1.248,5.149,1.886,0.607,0.314,-9.733,5.431,1.650,2.513,0.193
111.521,-0.342,-0.668,-0.661,0.519,-0.743,0.105,17.686,1.248,5.149,1.886,0.607,0.314,-9.733,5.431,1.650,2.513,0.193
111.581,-0.345,-0.678,-0.650,0.542,-0.758,0.060,17.797,1.282,5.168,1.807,0.585,0.311,-7.098,6.045,-0.397,2.517,0.196
111.581,-0.345,-0.678,-0.650,0.542,-0.758,0.060,17.797,1.282,5.168,1.807,0.585,0.311,-7.098,6.045,-0.397,2.517,0.196
111.621,-0.355,-0.677,-0.645,0.555,-0.764,0.026,17.868,1.307,5.182,1.768,0.639,0.384,-5.766,4.784,-0.781,2.519,0.197
111.621,-0.355,-0.677,-0.645,0.555,-0.764,0.026,17.868,1.307,5.182,1.768,0.639,0.384,-5.766,4.784,-0.781,2.519,0.197
111.681,-0.376,-0.674,-0.635,0.561,-0.772,-0.009,17.974,1.348,5.210,1.773,0.710,0.539,-5.636,2.772,-1.294,2.522,0.199
111.681,-0.376,-0.674,-0.635,0.561,-0.772,-0.009,17.974,1.348,5.210,1.773,0.710,0.539,-5.636,2.772,-1.294,2.522,0.199
111.721,-0.384,-0.671,-0.635,0.562,-0.772,-0.017,17.976,1.383,5.168,1.777,0.777,0.655,-6.011,3.757,-1.390,2.497,0.189
111.721,-0.384,-0.671,-0.635,0.562,-0.772,-0.017,17.976,1.383,5.168,1.777,0.777,0.655,-6.011,3.757,-1.390,2.497,0.189
111.781,-0.390,-0.663,-0.639,0.560,-0.769,-0.014,18.084,1.432,5.210,1.824,0.853,0.728,-8.236,4.475,-1.488,2.500,0.193
111.781,-0.390,-0.663,-0.639,0.560,-0.769,-0.014,18.084,1.432,5.210,1.824,0.853,0.728,-8.236,4.475,-1.488,2.500,0.193
111.821,-0.382,-0.659,-0.648,0.563,-0.762,-0.003,18.158,1.467,5.240,1.868,0.900,0.723,-9.362,5.746,-0.412,2.503,0.197
111.821,-0.382,-0.659,-0.648,0.563,-0.762,-0.003,18.158,1.467,5.240,1.868,0.900,0.723,-9.362,5.746,-0.412,2.503,0.197
111.881,-0.368,-0.655,-0.660,0.567,-0.751,0.013,18.269,1.521,5.280,1.850,0.910,0.594,-10.366,6.128,0.063,2.506,0.200
111.881,-0.368,-0.655,-0.660,0.567,-0.751,0.013,18.269,1.521,5.280,1.850,0.910,0.594,-10.366,6.128,0.063,2.506,0.200
111.941,-0.349,-0.653,-0.672,0.574,-0.740,0.029,18.368,1.569,5.371,1.820,0.903,0.439,-11.184,6.483,0.501,2.486,0.196
111.941,-0.349,-0.653,-0.672,0.574,-0.740,0.029,18.368,1.569,5.371,1.820,0.903,0.439,-11.184,6.483,0.501,2.486,0.196
111.981,-0.338,-0.645,-0.686,0.582,-0.727,0.039,18.440,1.604,5.386,1.761,0.860,0.311,-11.618,7.376,2.306,2.488,0.195
111.981,-0.338,-0.645,-0.686,0.582,-0.727,0.039,18.440,1.604,5.386,1.761,0.860,0.311,-11.618,7.376,2.306,2.488,0.195
112.041,-0.354,-0.619,-0.701,0.585,-0.713,0.032,18.543,1.653,5.401,1.683,0.753,0.202,-8.518,4.045,1.701,2.491,0.196
112.041,-0.354,-0.619,-0.701,0.585,-0.713,0.032,18.543,1.653,5.401,1.683,0.753,0.202,-8.518,4.045,1.701,2.491,0.196
112.081,-0.377,-0.616,-0.691,0.579,-0.723,0.015,18.610,1.682,5.409,1.686,0.710,0.223,-7.446,3.950,-0.557,2.493,0.197
112.081,-0.377,-0.616,-0.691,0.579,-0.723,0.015,18.610,1.682,5.409,1.686,0.710,0.223,-7.446,3.950,-0.557,2.493,0.197
112.141,-0.400,-0.615,-0.679,0.578,-0.734,-0.011,18.700,1.727,5.438,1.747,0.754,0.404,-5.677,3.809,-1.563,2.471,0.187
112.141,-0.400,-0.615,-0.679,0.578,-0.734,-0.011,18.700,1.727,5.438,1.747,0.754,0.404,-5.677,3.809,-1.563,2.471,0.187
112.181,-0.409,-0.616,-0.673,0.573,-0.740,-0.017,18.770,1.758,5.456,1.787,0.816,0.512,-6.087,3.897,-1.659,2.473,0.189
112.181,-0.409,-0.616,-0.673,0.573,-0.740,-0.017,18.770,1.758,5.456,1.787,0.816,0.512,-6.087,3.897,-1.659,2.473,0.189
112.241,-0.411,-0.616,-0.673,0.566,-0.740,-0.009,18.880,1.809,5.493,1.872,0.869,0.675,-6.889,3.724,-1.287,2.476,0.193
112.241,-0.411,-0.616,-0.673,0.566,-0.740,-0.009,18.880,1.809,5.493,1.872,0.869,0.675,-6.889,3.724,-1.287,2.476,0.193
112.281,-0.405,-0.620,-0.672,0.560,-0.740,0.004,18.956,1.844,5.521,1.921,0.887,0.714,-8.300,4.568,-0.733,2.478,0.197
112.281,-0.405,-0.620,-0.672,0.560,-0.740,0.004,18.956,1.844,5.521,1.921,0.887,0.714,-8.300,4.568,-0.733,2.478,0.197
112.341,-0.392,-0.627,-0.674,0.550,-0.738,0.029,19.030,1.877,5.598,1.922,0.872,0.689,-9.271,5.929,-0.118,2.459,0.195
112.341,-0.392,-0.627,-0.674,0.550,-0.738,0.029,19.030,1.877,5.598,1.922,0.872,0.689,-9.271,5.929,-0.118,2.459,0.195
112.381,-0.385,-0.632,-0.672,0.541,-0.739,0.046,19.107,1.912,5.625,1.931,0.870,0.608,-10.705,6.857,-0.188,2.461,0.197
112.381,-0.385,-0.632,-0.672,0.541,-0.739,0.046,19.107,1.912,5.625,1.931,0.870,0.608,-10.705,6.857,-0.188,2.461,0.197
112.441,-0.373,-0.638,-0.673,0.524,-0.735,0.078,19.222,1.963,5.654,1.903,0.803,0.409,-9.975,5.866,0.630,2.464,0.196
112.481,-0.368,-0.649,-0.666,0.516,-0.741,0.090,19.298,1.994,5.670,1.878,0.746,0.376,-8.622,5.703,0.859,2.466,0.196
112.481,-0.368,-0.649,-0.666,0.516,-0.741,0.090,19.298,1.994,5.670,1.878,0.746,0.376,-8.622,5.703,0.859,2.466,0.196
112.541,-0.364,-0.653,-0.664,0.524,-0.743,0.080,19.362,2.010,5.706,1.801,0.684,0.401,-7.382,5.656,1.064,2.446,0.188
112.541,-0.364,-0.653,-0.664,0.524,-0.743,0.080,19.362,2.010,5.706,1.801,0.684,0.401,-7.382,5.656,1.064,2.446,0.188
112.601,-0.385,-0.639,-0.666,0.543,-0.745,0.039,19.466,2.050,5.730,1.688,0.640,0.417,-7.519,5.464,1.083,2.449,0.190
112.601,-0.385,-0.639,-0.666,0.543,-0.745,0.039,19.466,2.050,5.730,1.688,0.640,0.417,-7.519,5.464,1.083,2.449,0.190
112.641,-0.421,-0.634,-0.648,0.541,-0.761,-0.001,19.533,2.075,5.748,1.704,0.640,0.479,-7.189,3.648,-0.706,2.451,0.192
112.641,-0.421,-0.634,-0.648,0.541,-0.761,-0.001,19.533,2.075,5.748,1.704,0.640,0.479,-7.189,3.648,-0.706,2.451,0.192
112.701,-0.460,-0.644,-0.612,0.526,-0.790,-0.039,19.641,2.115,5.782,1.913,0.730,0.634,-6.604,2.724,-4.788,2.454,0.194
112.701,-0.460,-0.644,-0.612,0.526,-0.790,-0.039,19.641,2.115,5.782,1.913,0.730,0.634,-6.604,2.724,-4.788,2.454,0.194
112.741,-0.438,-0.647,-0.625,0.532,-0.781,-0.021,19.735,2.153,5.769,2.024,0.785,0.716,-8.416,4.133,-0.616,2.432,0.196
112.741,-0.438,-0.647,-0.625,0.532,-0.781,-0.021,19.735,2.153,5.769,2.024,0.785,0.716,-8.416,4.133,-0.616,2.432,0.196
112.801,-0.396,-0.653,-0.646,0.540,-0.763,0.019,19.857,2.201,5.812,2.029,0.793,0.719,-8.270,5.605,-0.321,2.435,0.201
112.801,-0.396,-0.653,-0.646,0.540,-0.763,0.019,19.857,2.201,5.812,2.029,0.793,0.719,-8.270,5.605,-0.321,2.435,0.201
112.841,-0.374,-0.656,-0.655,0.544,-0.755,0.038,19.937,2.233,5.841,2.011,0.811,0.672,-9.533,6.576,-0.551,2.437,0.201
112.841,-0.374,-0.656,-0.655,0.544,-0.755,0.038,19.937,2.233,5.841,2.011,0.811,0.672,-9.533,6.576,-0.551,2.437,0.201
112.901,-0.341,-0.658,-0.671,0.551,-0.738,0.068,20.057,2.283,5.878,2.006,0.834,0.557,-9.959,5.916,-0.233,2.440,0.203
112.901,-0.341,-0.658,-0.671,0.551,-0.738,0.068,20.057,2.283,5.878,2.006,0.834,0.557,-9.959,5.916,-0.233,2.440,0.203
112.941,-0.320,-0.657,-0.682,0.560,-0.727,0.082,20.063,2.284,5.905,1.954,0.793,0.490,-10.218,6.225,0.515,2.421,0.196
112.941,-0.320,-0.657,-0.682,0.560,-0.727,0.082,20.063,2.284,5.905,1.954,0.793,0.490,-10.218,6.225,0.515,2.421,0.196
113.001,-0.319,-0.637,-0.702,0.570,-0.707,0.085,20.178,2.329,5.931,1.854,0.699,0.379,-9.508,4.953,1.922,2.424,0.192
113.001,-0.319,-0.637,-0.702,0.570,-0.707,0.085,20.178,2.329,5.931,1.854,0.699,0.379,-9.508,4.953,1.922,2.424,0.192
113.041,-0.342,-0.617,-0.709,0.574,-0.702,0.064,20.251,2.355,5.946,1.800,0.585,0.362,-8.834,4.439,2.137,2.426,0.193
113.041,-0.342,-0.617,-0.709,0.574,-0.702,0.064,20.251,2.355,5.946,1.800,0.585,0.362,-8.834,4.439,2.137,2.426,0.193
113.101,-0.385,-0.606,-0.696,0.577,-0.717,0.014,20.359,2.388,5.971,1.841,0.543,0.488,-5.880,2.755,-1.041,2.429,0.199
113.101,-0.385,-0.606,-0.696,0.577,-0.717,0.014,20.359,2.388,5.971,1.841,0.543,0.488,-5.880,2.755,-1.041,2.429,0.199
113.161,-0.411,-0.610,-0.677,0.585,-0.735,-0.032,20.445,2.419,5.958,1.897,0.611,0.669,-5.675,3.770,-2.018,2.410,0.194
113.161,-0.411,-0.610,-0.677,0.585,-0.735,-0.032,20.445,2.419,5.958,1.897,0.611,0.669,-5.675,3.770,-2.018,2.410,0.194
113.201,-0.421,-0.615,-0.667,0.583,-0.744,-0.045,20.522,2.446,5.988,1.984,0.710,0.782,-6.430,3.380,-2.292,2.412,0.198
113.201,-0.421,-0.615,-0.667,0.583,-0.744,-0.045,20.522,2.446,5.988,1.984,0.710,0.782,-6.430,3.380,-2.292,2.412,0.198
113.261,-0.406,-0.616,-0.675,0.580,-0.737,-0.022,20.644,2.491,6.039,2.074,0.801,0.867,-8.784,5.668,-0.898,2.415,0.210
113.261,-0.406,-0.616,-0.675,0.580,-0.737,-0.022,20.644,2.491,6.039,2.074,0.801,0.867,-8.784,5.668,-0.898,2.415,0.210
113.301,-0.393,-0.617,-0.682,0.571,-0.731,0.005,20.728,2.524,6.072,2.091,0.821,0.804,-9.753,5.975,-0.190,2.417,0.214
113.301,-0.393,-0.617,-0.682,0.571,-0.731,0.005,20.728,2.524,6.072,2.091,0.821,0.804,-9.753,5.975,-0.190,2.417,0.214
113.361,-0.369,-0.618,-0.694,0.557,-0.718,0.052,20.788,2.552,6.103,2.039,0.763,0.654,-10.381,6.426,1.622,2.400,0.207
113.361,-0.369,-0.618,-0.694,0.557,-0.718,0.052,20.788,2.552,6.103,2.039,0.763,0.654,-10.381,6.426,1.622,2.400,0.207
113.401,-0.359,-0.617,-0.701,0.552,-0.710,0.072,20.869,2.580,6.128,1.977,0.679,0.565,-10.885,6.888,1.691,2.402,0.203
113.401,-0.359,-0.617,-0.701,0.552,-0.710,0.072,20.869,2.580,6.128,1.977,0.679,0.565,-10.885,6.888,1.691,2.402,0.203
113.461,-0.361,-0.631,-0.686,0.542,-0.723,0.074,20.984,2.618,6.154,1.876,0.571,0.326,-9.973,6.697,1.407,2.405,0.201
113.461,-0.361,-0.631,-0.686,0.542,-0.723,0.074,20.984,2.618,6.154,1.876,0.571,0.326,-9.973,6.697,1.407,2.405,0.201
113.501,-0.358,-0.630,-0.689,0.550,-0.721,0.068,21.058,2.640,6.167,1.816,0.517,0.301,-7.987,5.995,1.492,2.407,0.202
113.501,-0.358,-0.630,-0.689,0.550,-0.721,0.068,21.058,2.640,6.167,1.816,0.517,0.301,-7.987,5.995,1.492,2.407,0.202
113.561,-0.375,-0.629,-0.682,0.563,-0.731,0.032,21.158,2.685,6.156,1.742,0.532,0.374,-4.922,3.958,-0.250,2.389,0.197
113.561,-0.375,-0.629,-0.682,0.563,-0.731,0.032,21.158,2.685,6.156,1.742,0.532,0.374,-4.922,3.958,-0.250,2.389,0.197
113.601,-0.398,-0.630,-0.666,0.566,-0.746,-0.003,21.227,2.707,6.175,1.738,0.569,0.523,-5.203,3.899,-1.357,2.392,0.196
113.601,-0.398,-0.630,-0.666,0.566,-0.746,-0.003,21.227,2.707,6.175,1.738,0.569,0.523,-5.203,3.899,-1.357,2.392,0.196
113.661,-0.434,-0.634,-0.640,0.557,-0.767,-0.040,21.334,2.744,6.213,1.852,0.685,0.748,-5.075,2.306,-2.869,2.395,0.196
113.661,-0.434,-0.634,-0.640,0.557,-0.767,-0.040,21.334,2.744,6.213,1.852,0.685,0.748,-5.075,2.306,-2.869,2.395,0.196
113.721,-0.430,-0.624,-0.652,0.562,-0.758,-0.035,21.389,2.787,6.181,1.929,0.749,0.873,-8.665,5.215,-0.420,2.377,0.197
113.761,-0.421,-0.622,-0.660,0.559,-0.751,-0.017,21.467,2.818,6.215,1.943,0.774,0.809,-9.948,6.543,-0.004,2.379,0.201
113.761,-0.421,-0.622,-0.660,0.559,-0.751,-0.017,21.467,2.818,6.215,1.943,0.774,0.809,-9.948,6.543,-0.004,2.379,0.201
113.821,-0.406,-0.617,-0.674,0.562,-0.738,0.001,21.584,2.864,6.261,1.985,0.769,0.709,-10.722,6.205,-1.041,2.383,0.205
113.821,-0.406,-0.617,-0.674,0.562,-0.738,0.001,21.584,2.864,6.261,1.985,0.769,0.709,-10.722,6.205,-1.041,2.383,0.205
113.861,-0.386,-0.622,-0.681,0.566,-0.732,0.017,21.664,2.895,6.287,2.006,0.795,0.559,-11.333,7.576,-0.548,2.385,0.211
113.861,-0.386,-0.622,-0.681,0.566,-0.732,0.017,21.664,2.895,6.287,2.006,0.795,0.559,-11.333,7.576,-0.548,2.385,0.211
113.921,-0.357,-0.630,-0.689,0.575,-0.723,0.036,21.703,2.933,6.292,1.949,0.826,0.353,-10.714,7.862,0.429,2.367,0.205
113.921,-0.357,-0.630,-0.689,0.575,-0.723,0.036,21.703,2.933,6.292,1.949,0.826,0.353,-10.714,7.862,0.429,2.367,0.205
113.961,-0.346,-0.635,-0.691,0.571,-0.722,0.051,21.779,2.966,6.304,1.891,0.818,0.256,-9.357,6.165,1.243,2.369,0.203
113.961,-0.346,-0.635,-0.691,0.571,-0.722,0.051,21.779,2.966,6.304,1.891,0.818,0.256,-9.357,6.165,1.243,2.369,0.203
114.021,-0.345,-0.624,-0.701,0.568,-0.710,0.064,21.890,3.012,6.320,1.798,0.705,0.278,-6.607,3.612,1.865,2.373,0.198
114.021,-0.345,-0.624,-0.701,0.568,-0.710,0.064,21.890,3.012,6.320,1.798,0.705,0.278,-6.607,3.612,1.865,2.373,0.198
114.061,-0.364,-0.626,-0.690,0.562,-0.722,0.048,21.961,3.039,6.334,1.782,0.648,0.435,-4.734,2.311,0.258,2.375,0.199
114.061,-0.364,-0.626,-0.690,0.562,-0.722,0.048,21.961,3.039,6.334,1.782,0.648,0.435,-4.734,2.311,0.258,2.375,0.199
114.121,-0.403,-0.621,-0.672,0.563,-0.740,0.002,22.053,3.076,6.275,1.788,0.668,0.655,-6.241,4.242,-1.029,2.358,0.195
114.121,-0.403,-0.621,-0.672,0.563,-0.740,0.002,22.053,3.076,6.275,1.788,0.668,0.655,-6.241,4.242,-1.029,2.358,0.195
114.161,-0.434,-0.611,-0.662,0.559,-0.749,-0.025,22.126,3.103,6.303,1.846,0.689,0.758,-6.846,2.575,-1.518,2.361,0.197
114.161,-0.434,-0.611,-0.662,0.559,-0.749,-0.025,22.126,3.103,6.303,1.846,0.689,0.758,-6.846,2.575,-1.518,2.361,0.197
114.221,-0.450,-0.611,-0.652,0.555,-0.758,-0.039,22.242,3.145,6.353,2.045,0.701,0.838,-9.699,3.731,-2.213,2.364,0.211
114.221,-0.450,-0.611,-0.652,0.555,-0.758,-0.039,22.242,3.145,6.353,2.045,0.701,0.838,-9.699,3.731,-2.213,2.364,0.211
114.281,-0.412,-0.627,-0.661,0.559,-0.750,-0.009,22.370,3.189,6.402,2.170,0.753,0.784,-10.437,7.017,-0.326,2.367,0.233
114.281,-0.412,-0.627,-0.661,0.559,-0.750,-0.009,22.370,3.189,6.402,2.170,0.753,0.784,-10.437,7.017,-0.326,2.367,0.233
114.321,-0.382,-0.643,-0.663,0.552,-0.748,0.026,22.423,3.186,6.405,2.121,0.736,0.617,-10.926,7.862,-0.107,2.350,0.221
114.321,-0.382,-0.643,-0.663,0.552,-0.748,0.026,22.423,3.186,6.405,2.121,0.736,0.617,-10.926,7.862,-0.107,2.350,0.221
114.381,-0.346,-0.654,-0.672,0.545,-0.737,0.072,22.548,3.229,6.437,2.033,0.697,0.427,-11.228,7.913,1.671,2.353,0.216
114.381,-0.346,-0.654,-0.672,0.545,-0.737,0.072,22.548,3.229,6.437,2.033,0.697,0.427,-11.228,7.913,1.671,2.353,0.216
114.421,-0.335,-0.649,-0.683,0.548,-0.725,0.086,22.627,3.256,6.451,1.913,0.624,0.334,-8.679,6.431,3.140,2.356,0.209
114.421,-0.335,-0.649,-0.683,0.548,-0.725,0.086,22.627,3.256,6.451,1.913,0.624,0.334,-8.679,6.431,3.140,2.356,0.209
114.481,-0.349,-0.625,-0.698,0.568,-0.713,0.059,22.736,3.290,6.472,1.737,0.526,0.349,-7.498,6.047,2.110,2.359,0.206
114.481,-0.349,-0.625,-0.698,0.568,-0.713,0.059,22.736,3.290,6.472,1.737,0.526,0.349,-7.498,6.047,2.110,2.359,0.206
114.521,-0.380,-0.614,-0.692,0.576,-0.722,0.017,22.794,3.288,6.418,1.670,0.509,0.398,-6.355,4.838,0.305,2.342,0.202
114.521,-0.380,-0.614,-0.692,0.576,-0.722,0.017,22.794,3.288,6.418,1.670,0.509,0.398,-6.355,4.838,0.305,2.342,0.202
114.581,-0.437,-0.605,-0.666,0.576,-0.745,-0.048,22.894,3.320,6.446,1.703,0.559,0.538,-6.260,3.372,-0.972,2.345,0.202
114.581,-0.437,-0.605,-0.666,0.576,-0.745,-0.048,22.894,3.320,6.446,1.703,0.559,0.538,-6.260,3.372,-0.972,2.345,0.202
114.621,-0.469,-0.606,-0.643,0.568,-0.762,-0.078,22.964,3.343,6.470,1.789,0.591,0.688,-5.902,2.192,-1.994,2.348,0.202
114.621,-0.469,-0.606,-0.643,0.568,-0.762,-0.078,22.964,3.343,6.470,1.789,0.591,0.688,-5.902,2.192,-1.994,2.348,0.202
114.681,-0.467,-0.624,-0.626,0.561,-0.775,-0.081,23.077,3.381,6.518,1.994,0.698,0.851,-8.333,4.501,-2.639,2.351,0.212
114.681,-0.467,-0.624,-0.626,0.561,-0.775,-0.081,23.077,3.381,6.518,1.994,0.698,0.851,-8.333,4.501,-2.639,2.351,0.212
114.721,-0.436,-0.638,-0.635,0.566,-0.771,-0.060,23.156,3.391,6.492,2.025,0.755,0.791,-9.699,7.302,-0.544,2.334,0.214
114.721,-0.436,-0.638,-0.635,0.566,-0.771,-0.060,23.156,3.391,6.492,2.025,0.755,0.791,-9.699,7.302,-0.544,2.334,0.214
114.781,-0.397,-0.660,-0.638,0.561,-0.770,-0.021,23.277,3.439,6.535,1.984,0.869,0.627,-10.748,8.275,-1.095,2.338,0.218
114.781,-0.397,-0.660,-0.638,0.561,-0.770,-0.021,23.277,3.439,6.535,1.984,0.869,0.627,-10.748,8.275,-1.095,2.338,0.218
114.821,-0.375,-0.668,-0.642,0.553,-0.766,0.012,23.356,3.476,6.558,1.984,0.948,0.494,-11.075,7.198,-0.902,2.340,0.226
114.821,-0.375,-0.668,-0.642,0.553,-0.766,0.012,23.356,3.476,6.558,1.984,0.948,0.494,-11.075,7.198,-0.902,2.340,0.226
114.881,-0.345,-0.665,-0.663,0.547,-0.746,0.063,23.474,3.533,6.582,1.940,0.924,0.301,-10.870,6.132,1.407,2.344,0.227
114.881,-0.345,-0.665,-0.663,0.547,-0.746,0.063,23.474,3.533,6.582,1.940,0.924,0.301,-10.870,6.132,1.407,2.344,0.227
114.941,-0.353,-0.651,-0.672,0.532,-0.736,0.085,23.536,3.539,6.545,1.858,0.747,0.231,-8.856,3.645,1.937,2.328,0.209
114.941,-0.353,-0.651,-0.672,0.532,-0.736,0.085,23.536,3.539,6.545,1.858,0.747,0.231,-8.856,3.645,1.937,2.328,0.209
114.981,-0.368,-0.641,-0.673,0.527,-0.735,0.080,23.610,3.567,6.555,1.826,0.620,0.285,-7.125,3.030,1.935,2.330,0.206
114.981,-0.368,-0.641,-0.673,0.527,-0.735,0.080,23.610,3.567,6.555,1.826,0.620,0.285,-7.125,3.030,1.935,2.330,0.206
115.041,-0.399,-0.636,-0.661,0.525,-0.749,0.047,23.720,3.601,6.579,1.853,0.552,0.527,-4.546,2.141,-0.278,2.334,0.210
115.041,-0.399,-0.636,-0.661,0.525,-0.749,0.047,23.720,3.601,6.579,1.853,0.552,0.527,-4.546,2.141,-0.278,2.334,0.210
115.081,-0.414,-0.632,-0.655,0.533,-0.755,0.019,23.795,3.623,6.604,1.881,0.557,0.696,-5.646,3.726,-0.789,2.336,0.212
115.081,-0.414,-0.632,-0.655,0.533,-0.755,0.019,23.795,3.623,6.604,1.881,0.557,0.696,-5.646,3.726,-0.789,2.336,0.212
115.141,-0.429,-0.630,-0.647,0.540,-0.762,-0.007,23.899,3.656,6.558,1.959,0.603,0.833,-6.392,2.901,-1.910,2.321,0.210
115.141,-0.429,-0.630,-0.647,0.540,-0.762,-0.007,23.899,3.656,6.558,1.959,0.603,0.833,-6.392,2.901,-1.910,2.321,0.210
115.181,-0.421,-0.639,-0.643,0.541,-0.765,-0.006,23.979,3.681,6.594,2.027,0.646,0.886,-8.682,5.675,-1.674,2.324,0.217
115.181,-0.421,-0.639,-0.643,0.541,-0.765,-0.006,23.979,3.681,6.594,2.027,0.646,0.886,-8.682,5.675,-1.674,2.324,0.217
115.241,-0.401,-0.656,-0.639,0.527,-0.768,0.027,24.102,3.723,6.645,2.085,0.737,0.820,-9.513,6.150,-0.997,2.327,0.227
115.241,-0.401,-0.656,-0.639,0.527,-0.768,0.027,24.102,3.723,6.645,2.085,0.737,0.820,-9.513,6.150,-0.997,2.327,0.227
115.281,-0.377,-0.661,-0.649,0.518,-0.758,0.066,24.185,3.753,6.676,2.062,0.736,0.685,-12.257,8.489,0.576,2.330,0.229
115.281,-0.377,-0.661,-0.649,0.518,-0.758,0.066,24.185,3.753,6.676,2.062,0.736,0.685,-12.257,8.489,0.576,2.330,0.229
115.341,-0.356,-0.660,-0.662,0.505,-0.741,0.112,24.260,3.764,6.683,1.990,0.619,0.430,-13.475,7.781,1.373,2.314,0.216
115.341,-0.356,-0.660,-0.662,0.505,-0.741,0.112,24.260,3.764,6.683,1.990,0.619,0.430,-13.475,7.781,1.373,2.314,0.216
115.381,-0.347,-0.659,-0.668,0.506,-0.734,0.122,24.338,3.787,6.698,1.914,0.513,0.300,-9.941,6.095,1.727,2.317,0.215
115.381,-0.347,-0.659,-0.668,0.506,-0.734,0.122,24.338,3.787,6.698,1.914,0.513,0.300,-9.941,6.095,1.727,2.317,0.215
115.441,-0.351,-0.642,-0.682,0.539,-0.726,0.084,24.449,3.814,6.717,1.788,0.421,0.334,-6.608,5.951,-0.247,2.321,0.217
115.441,-0.351,-0.642,-0.682,0.539,-0.726,0.084,24.449,3.814,6.717,1.788,0.421,0.334,-6.608,5.951,-0.247,2.321,0.217
115.501,-0.391,-0.631,-0.670,0.562,-0.742,0.010,24.554,3.841,6.740,1.732,0.470,0.468,-4.940,4.119,-0.688,2.324,0.216
115.501,-0.391,-0.631,-0.670,0.562,-0.742,0.010,24.554,3.841,6.740,1.732,0.470,0.468,-4.940,4.119,-0.688,2.324,0.216
115.541,-0.428,-0.633,-0.645,0.564,-0.763,-0.041,24.613,3.859,6.675,1.745,0.519,0.599,-5.233,3.194,-1.614,2.308,0.209
115.541,-0.428,-0.633,-0.645,0.564,-0.763,-0.041,24.613,3.859,6.675,1.745,0.519,0.599,-5.233,3.194,-1.614,2.308,0.209
115.601,-0.457,-0.645,-0.612,0.557,-0.786,-0.082,24.722,3.894,6.718,1.893,0.647,0.796,-7.163,3.799,-3.205,2.312,0.212
115.641,-0.448,-0.652,-0.612,0.554,-0.788,-0.074,24.799,3.922,6.751,1.973,0.754,0.826,-9.644,4.858,-3.180,2.315,0.220
115.641,-0.448,-0.652,-0.612,0.554,-0.788,-0.074,24.799,3.922,6.751,1.973,0.754,0.826,-9.644,4.858,-3.180,2.315,0.220
115.701,-0.410,-0.658,-0.631,0.550,-0.775,-0.022,24.919,3.971,6.798,2.009,0.861,0.706,-10.861,7.125,-0.382,2.319,0.232
115.701,-0.410,-0.658,-0.631,0.550,-0.775,-0.022,24.919,3.971,6.798,2.009,0.861,0.706,-10.861,7.125,-0.382,2.319,0.232
115.741,-0.380,-0.656,-0.652,0.548,-0.758,0.024,24.998,3.944,6.780,2.006,0.842,0.576,-11.418,7.037,0.154,2.302,0.228
115.741,-0.380,-0.656,-0.652,0.548,-0.758,0.024,24.998,3.944,6.780,2.006,0.842,0.576,-11.418,7.037,0.154,2.302,0.228
115.801,-0.340,-0.663,-0.666,0.545,-0.742,0.074,25.117,3.993,6.809,1.991,0.793,0.409,-9.941,4.999,-0.427,2.306,0.227
115.801,-0.340,-0.663,-0.666,0.545,-0.742,0.074,25.117,3.993,6.809,1.991,0.793,0.409,-9.941,4.999,-0.427,2.306,0.227
115.841,-0.319,-0.670,-0.670,0.548,-0.736,0.090,25.196,4.024,6.824,1.922,0.770,0.276,-11.250,8.636,0.534,2.309,0.225
115.841,-0.319,-0.670,-0.670,0.548,-0.736,0.090,25.196,4.024,6.824,1.922,0.770,0.276,-11.250,8.636,0.534,2.309,0.225
115.901,-0.341,-0.660,-0.670,0.533,-0.737,0.092,25.308,4.069,6.837,1.826,0.729,0.210,-7.562,4.110,0.641,2.313,0.222
115.901,-0.341,-0.660,-0.670,0.533,-0.737,0.092,25.308,4.069,6.837,1.826,0.729,0.210,-7.562,4.110,0.641,2.313,0.222
115.941,-0.365,-0.647,-0.670,0.526,-0.738,0.081,25.369,4.069,6.785,1.804,0.646,0.277,-7.078,2.898,0.737,2.296,0.213
115.941,-0.365,-0.647,-0.670,0.526,-0.738,0.081,25.369,4.069,6.785,1.804,0.646,0.277,-7.078,2.898,0.737,2.296,0.213
116.001,-0.400,-0.633,-0.663,0.525,-0.747,0.048,25.478,4.105,6.808,1.817,0.552,0.508,-4.000,1.996,-0.133,2.300,0.213
116.001,-0.400,-0.633,-0.663,0.525,-0.747,0.048,25.478,4.105,6.808,1.817,0.552,0.508,-4.000,1.996,-0.133,2.300,0.213
116.061,-0.435,-0.629,-0.644,0.524,-0.765,0.007,25.588,4.138,6.847,1.875,0.571,0.730,-7.000,3.733,-1.730,2.305,0.216
116.061,-0.435,-0.629,-0.644,0.524,-0.765,0.007,25.588,4.138,6.847,1.875,0.571,0.730,-7.000,3.733,-1.730,2.305,0.216
116.101,-0.447,-0.626,-0.640,0.524,-0.769,-0.005,25.665,4.161,6.878,1.989,0.586,0.846,-6.363,1.538,-2.160,2.307,0.221
116.101,-0.447,-0.626,-0.640,0.524,-0.769,-0.005,25.665,4.161,6.878,1.989,0.586,0.846,-6.363,1.538,-2.160,2.307,0.221
116.161,-0.420,-0.641,-0.643,0.531,-0.766,0.010,25.759,4.183,6.870,2.077,0.602,0.876,-9.087,6.597,-0.886,2.292,0.226
116.161,-0.420,-0.641,-0.643,0.531,-0.766,0.010,25.759,4.183,6.870,2.077,0.602,0.876,-9.087,6.597,-0.886,2.292,0.226
116.201,-0.395,-0.648,-0.651,0.530,-0.758,0.036,25.842,4.207,6.904,2.078,0.629,0.818,-9.668,6.514,-0.058,2.295,0.229
116.201,-0.395,-0.648,-0.651,0.530,-0.758,0.036,25.842,4.207,6.904,2.078,0.629,0.818,-9.668,6.514,-0.058,2.295,0.229
116.261,-0.355,-0.660,-0.662,0.528,-0.745,0.082,25.964,4.244,6.946,1.958,0.587,0.556,-10.659,8.057,1.248,2.299,0.224
116.261,-0.355,-0.660,-0.662,0.528,-0.745,0.082,25.964,4.244,6.946,1.958,0.587,0.556,-10.659,8.057,1.248,2.299,0.224
116.301,-0.355,-0.664,-0.657,0.524,-0.749,0.084,25.990,4.235,6.954,1.875,0.521,0.437,-10.690,6.715,1.431,2.301,0.222
116.301,-0.355,-0.664,-0.657,0.524,-0.749,0.084,25.990,4.235,6.954,1.875,0.521,0.437,-10.690,6.715,1.431,2.301,0.222
116.361,-0.366,-0.657,-0.659,0.535,-0.750,0.059,26.097,4.263,6.976,1.714,0.433,0.314,-7.883,6.923,1.410,2.286,0.214
116.361,-0.366,-0.657,-0.659,0.535,-0.750,0.059,26.097,4.263,6.976,1.714,0.433,0.314,-7.883,6.923,1.410,2.286,0.214
116.401,-0.388,-0.650,-0.654,0.549,-0.757,0.017,26.164,4.281,6.988,1.640,0.476,0.321,-6.937,6.332,-0.221,2.289,0.216
116.401,-0.388,-0.650,-0.654,0.549,-0.757,0.017,26.164,4.281,6.988,1.640,0.476,0.321,-6.937,6.332,-0.221,2.289,0.216
116.461,-0.436,-0.643,-0.629,0.550,-0.776,-0.042,26.262,4.312,7.011,1.661,0.552,0.458,-5.967,3.333,-0.943,2.293,0.217
116.461,-0.436,-0.643,-0.629,0.550,-0.776,-0.042,26.262,4.312,7.011,1.661,0.552,0.458,-5.967,3.333,-0.943,2.293,0.217
116.501,-0.462,-0.636,-0.618,0.544,-0.784,-0.062,26.330,4.334,7.033,1.717,0.570,0.606,-6.114,2.488,-1.040,2.295,0.218
116.501,-0.462,-0.636,-0.618,0.544,-0.784,-0.062,26.330,4.334,7.033,1.717,0.570,0.606,-6.114,2.488,-1.040,2.295,0.218
116.561,-0.476,-0.637,-0.607,0.534,-0.792,-0.066,26.429,4.364,6.998,1.848,0.561,0.805,-7.400,2.248,-0.209,2.280,0.213
116.561,-0.476,-0.637,-0.607,0.534,-0.792,-0.066,26.429,4.364,6.998,1.848,0.561,0.805,-7.400,2.248,-0.209,2.280,0.213
116.621,-0.447,-0.653,-0.611,0.535,-0.791,-0.044,26.544,4.397,7.046,1.953,0.556,0.758,-9.753,5.521,-0.223,2.285,0.221
116.661,-0.418,-0.663,-0.622,0.541,-0.783,-0.022,26.623,4.420,7.076,1.975,0.566,0.695,-10.381,6.767,0.062,2.288,0.225
116.661,-0.418,-0.663,-0.622,0.541,-0.783,-0.022,26.623,4.420,7.076,1.975,0.566,0.695,-10.381,6.767,0.062,2.288,0.225
116.721,-0.370,-0.669,-0.644,0.559,-0.765,0.008,26.702,4.411,7.112,1.939,0.606,0.479,-10.854,6.847,-1.050,2.272,0.219
116.721,-0.370,-0.669,-0.644,0.559,-0.765,0.008,26.702,4.411,7.112,1.939,0.606,0.479,-10.854,6.847,-1.050,2.272,0.219
116.761,-0.340,-0.665,-0.665,0.577,-0.747,0.024,26.780,4.437,7.129,1.929,0.670,0.375,-10.764,8.172,0.006,2.275,0.223
116.761,-0.340,-0.665,-0.665,0.577,-0.747,0.024,26.780,4.437,7.129,1.929,0.670,0.375,-10.764,8.172,0.006,2.275,0.223
116.821,-0.336,-0.635,-0.695,0.579,-0.717,0.052,26.891,4.478,7.146,1.774,0.661,0.180,-9.722,6.092,2.187,2.279,0.222
116.821,-0.336,-0.635,-0.695,0.579,-0.717,0.052,26.891,4.478,7.146,1.774,0.661,0.180,-9.722,6.092,2.187,2.279,0.222
116.861,-0.358,-0.609,-0.708,0.572,-0.704,0.051,26.961,4.503,7.153,1.701,0.575,0.207,-7.138,3.614,1.941,2.282,0.219
116.861,-0.358,-0.609,-0.708,0.572,-0.704,0.051,26.961,4.503,7.153,1.701,0.575,0.207,-7.138,3.614,1.941,2.282,0.219
116.921,-0.408,-0.599,-0.689,0.554,-0.725,0.019,27.074,4.510,7.120,1.747,0.501,0.425,-5.046,1.644,-0.976,2.268,0.213
116.921,-0.408,-0.599,-0.689,0.554,-0.725,0.019,27.074,4.510,7.120,1.747,0.501,0.425,-5.046,1.644,-0.976,2.268,0.213
116.961,-0.421,-0.597,-0.683,0.558,-0.730,-0.000,27.145,4.530,7.140,1.769,0.503,0.544,-5.745,4.965,0.130,2.271,0.214
116.961,-0.421,-0.597,-0.683,0.558,-0.730,-0.000,27.145,4.530,7.140,1.769,0.503,0.544,-5.745,4.965,0.130,2.271,0.214
117.021,-0.450,-0.591,-0.669,0.551,-0.743,-0.024,27.252,4.561,7.179,1.832,0.509,0.765,-6.083,1.826,-0.993,2.275,0.217
117.021,-0.450,-0.591,-0.669,0.551,-0.743,-0.024,27.252,4.561,7.179,1.832,0.509,0.765,-6.083,1.826,-0.993,2.275,0.217
117.061,-0.449,-0.594,-0.667,0.557,-0.744,-0.031,27.327,4.581,7.212,1.915,0.499,0.844,-8.293,4.522,-0.929,2.278,0.221
117.061,-0.449,-0.594,-0.667,0.557,-0.744,-0.031,27.327,4.581,7.212,1.915,0.499,0.844,-8.293,4.522,-0.929,2.278,0.221
117.121,-0.427,-0.612,-0.666,0.557,-0.746,-0.014,27.414,4.617,7.244,1.962,0.565,0.764,-10.109,7.095,-1.174,2.262,0.220
117.121,-0.427,-0.612,-0.666,0.557,-0.746,-0.014,27.414,4.617,7.244,1.962,0.565,0.764,-10.109,7.095,-1.174,2.262,0.220
117.161,-0.393,-0.612,-0.686,0.563,-0.727,0.019,27.492,4.640,7.273,1.945,0.577,0.644,-10.981,8.217,1.215,2.265,0.223
117.161,-0.393,-0.612,-0.686,0.563,-0.727,0.019,27.492,4.640,7.273,1.945,0.577,0.644,-10.981,8.217,1.215,2.265,0.223
117.221,-0.371,-0.633,-0.679,0.545,-0.732,0.057,27.605,4.675,7.304,1.835,0.580,0.395,-10.844,8.460,-0.274,2.269,0.219
117.221,-0.371,-0.633,-0.679,0.545,-0.732,0.057,27.605,4.675,7.304,1.835,0.580,0.395,-10.844,8.460,-0.274,2.269,0.219
117.281,-0.362,-0.648,-0.670,0.530,-0.738,0.079,27.712,4.709,7.321,1.724,0.544,0.221,-8.224,6.250,1.643,2.274,0.220
117.281,-0.362,-0.648,-0.670,0.530,-0.738,0.079,27.712,4.709,7.321,1.724,0.544,0.221,-8.224,6.250,1.643,2.274,0.220
117.321,-0.355,-0.641,-0.681,0.540,-0.729,0.078,27.759,4.706,7.316,1.583,0.487,0.249,-6.572,6.575,2.814,2.257,0.214
117.321,-0.355,-0.641,-0.681,0.540,-0.729,0.078,27.759,4.706,7.316,1.583,0.487,0.249,-6.572,6.575,2.814,2.257,0.214
117.381,-0.403,-0.621,-0.672,0.549,-0.740,0.020,27.848,4.735,7.335,1.435,0.471,0.401,-5.064,4.070,0.045,2.261,0.227
117.381,-0.403,-0.621,-0.672,0.549,-0.740,0.020,27.848,4.735,7.335,1.435,0.471,0.401,-5.064,4.070,0.045,2.261,0.227
117.421,-0.455,-0.620,-0.639,0.541,-0.769,-0.034,27.906,4.754,7.354,1.475,0.505,0.515,-6.790,3.662,-1.991,2.264,0.227
117.421,-0.455,-0.620,-0.639,0.541,-0.769,-0.034,27.906,4.754,7.354,1.475,0.505,0.515,-6.790,3.662,-1.991,2.264,0.227
117.481,-0.497,-0.627,-0.599,0.521,-0.798,-0.067,28.000,4.787,7.389,1.659,0.567,0.689,-6.108,2.021,-2.091,2.269,0.220
117.481,-0.497,-0.627,-0.599,0.521,-0.798,-0.067,28.000,4.787,7.389,1.659,0.567,0.689,-6.108,2.021,-2.091,2.269,0.220
117.521,-0.491,-0.630,-0.601,0.525,-0.796,-0.068,28.068,4.828,7.388,1.768,0.609,0.778,-8.280,4.234,-1.526,2.251,0.212
117.521,-0.491,-0.630,-0.601,0.525,-0.796,-0.068,28.068,4.828,7.388,1.768,0.609,0.778,-8.280,4.234,-1.526,2.251,0.212
117.581,-0.464,-0.640,-0.612,0.530,-0.789,-0.048,28.177,4.866,7.434,1.851,0.670,0.720,-9.772,6.461,-0.825,2.256,0.220
117.581,-0.464,-0.640,-0.612,0.530,-0.789,-0.048,28.177,4.866,7.434,1.851,0.670,0.720,-9.772,6.461,-0.825,2.256,0.220
117.621,-0.441,-0.644,-0.625,0.536,-0.780,-0.029,28.251,4.894,7.461,1.875,0.694,0.624,-10.842,6.686,-0.429,2.259,0.225
117.621,-0.441,-0.644,-0.625,0.536,-0.780,-0.029,28.251,4.894,7.461,1.875,0.694,0.624,-10.842,6.686,-0.429,2.259,0.225
117.681,-0.397,-0.656,-0.642,0.542,-0.767,0.010,28.364,4.936,7.492,1.868,0.700,0.396,-11.316,7.246,0.846,2.263,0.230
117.681,-0.397,-0.656,-0.642,0.542,-0.767,0.010,28.364,4.936,7.492,1.868,0.700,0.396,-11.316,7.246,0.846,2.263,0.230
117.721,-0.375,-0.652,-0.659,0.554,-0.752,0.026,28.434,4.910,7.504,1.786,0.630,0.302,-9.629,6.825,2.423,2.246,0.218
117.721,-0.375,-0.652,-0.659,0.554,-0.752,0.026,28.434,4.910,7.504,1.786,0.630,0.302,-9.629,6.825,2.423,2.246,0.218
117.781,-0.398,-0.640,-0.657,0.552,-0.754,0.008,28.536,4.946,7.518,1.643,0.555,0.164,-9.325,5.631,1.222,2.251,0.216
117.801,-0.413,-0.636,-0.652,0.548,-0.758,-0.002,28.569,4.957,7.522,1.641,0.543,0.166,-7.851,4.371,0.042,2.252,0.216
117.841,-0.435,-0.628,-0.645,0.544,-0.764,-0.019,28.635,4.978,7.530,1.682,0.545,0.278,-5.915,2.791,-1.100,2.255,0.217
117.881,-0.443,-0.627,-0.641,0.543,-0.767,-0.027,28.704,5.001,7.544,1.741,0.573,0.392,-6.362,4.058,-1.023,2.258,0.218
117.881,-0.443,-0.627,-0.641,0.543,-0.767,-0.027,28.704,5.001,7.544,1.741,0.573,0.392,-6.362,4.058,-1.023,2.258,0.218
117.941,-0.438,-0.622,-0.649,0.541,-0.761,-0.015,28.788,5.001,7.530,1.770,0.591,0.575,-5.911,3.460,-0.484,2.244,0.215
117.941,-0.438,-0.622,-0.649,0.541,-0.761,-0.015,28.788,5.001,7.530,1.770,0.591,0.575,-5.911,3.460,-0.484,2.244,0.215
117.981,-0.433,-0.623,-0.652,0.538,-0.759,-0.004,28.860,5.025,7.556,1.814,0.592,0.672,-7.123,3.818,-0.619,2.247,0.218
117.981,-0.433,-0.623,-0.652,0.538,-0.759,-0.004,28.860,5.025,7.556,1.814,0.592,0.672,-7.123,3.818,-0.619,2.247,0.218
118.041,-0.414,-0.632,-0.655,0.528,-0.755,0.026,28.969,5.060,7.598,1.838,0.573,0.706,-8.842,5.088,0.130,2.251,0.221
118.041,-0.414,-0.632,-0.655,0.528,-0.755,0.026,28.969,5.060,7.598,1.838,0.573,0.706,-8.842,5.088,0.130,2.251,0.221
118.081,-0.399,-0.635,-0.661,0.527,-0.749,0.045,29.043,5.082,7.626,1.840,0.522,0.682,-9.708,5.946,1.120,2.254,0.222
118.081,-0.399,-0.635,-0.661,0.527,-0.749,0.045,29.043,5.082,7.626,1.840,0.522,0.682,-9.708,5.946,1.120,2.254,0.222
118.141,-0.380,-0.654,-0.653,0.519,-0.754,0.066,29.138,5.063,7.679,1.747,0.456,0.520,-9.668,6.424,-0.147,2.239,0.213
118.141,-0.380,-0.654,-0.653,0.519,-0.754,0.066,29.138,5.063,7.679,1.747,0.456,0.520,-9.668,6.424,-0.147,2.239,0.213
118.181,-0.374,-0.667,-0.645,0.521,-0.762,0.062,29.208,5.081,7.699,1.712,0.428,0.427,-10.505,7.544,0.827,2.242,0.214
118.181,-0.374,-0.667,-0.645,0.521,-0.762,0.062,29.208,5.081,7.699,1.712,0.428,0.427,-10.505,7.544,0.827,2.242,0.214
118.241,-0.376,-0.657,-0.653,0.535,-0.756,0.047,29.307,5.105,7.721,1.585,0.381,0.354,-7.666,5.821,1.233,2.247,0.218
118.241,-0.376,-0.657,-0.653,0.535,-0.756,0.047,29.307,5.105,7.721,1.585,0.381,0.354,-7.666,5.821,1.233,2.247,0.218
118.281,-0.389,-0.635,-0.667,0.558,-0.745,0.016,29.368,5.120,7.736,1.515,0.382,0.393,-6.206,5.743,-0.339,2.250,0.223
118.281,-0.389,-0.635,-0.667,0.558,-0.745,0.016,29.368,5.120,7.736,1.515,0.382,0.393,-6.206,5.743,-0.339,2.250,0.223
118.341,-0.422,-0.608,-0.672,0.576,-0.740,-0.032,29.478,5.139,7.719,1.503,0.478,0.475,-6.469,4.688,-1.453,2.236,0.219
118.341,-0.422,-0.608,-0.672,0.576,-0.740,-0.032,29.478,5.139,7.719,1.503,0.478,0.475,-6.469,4.688,-1.453,2.236,0.219
118.401,-0.450,-0.591,-0.669,0.577,-0.741,-0.057,29.571,5.170,7.752,1.611,0.528,0.657,-6.000,2.420,-1.752,2.240,0.217
118.401,-0.450,-0.591,-0.669,0.577,-0.741,-0.057,29.571,5.170,7.752,1.611,0.528,0.657,-6.000,2.420,-1.752,2.240,0.217
118.441,-0.449,-0.592,-0.669,0.577,-0.741,-0.055,29.638,5.191,7.781,1.699,0.554,0.734,-8.384,5.009,-1.286,2.243,0.218
118.441,-0.449,-0.592,-0.669,0.577,-0.741,-0.055,29.638,5.191,7.781,1.699,0.554,0.734,-8.384,5.009,-1.286,2.243,0.218
118.501,-0.424,-0.592,-0.686,0.589,-0.727,-0.041,29.741,5.225,7.826,1.746,0.561,0.749,-8.946,5.986,0.256,2.248,0.221
118.501,-0.424,-0.592,-0.686,0.589,-0.727,-0.041,29.741,5.225,7.826,1.746,0.561,0.749,-8.946,5.986,0.256,2.248,0.221
118.541,-0.411,-0.599,-0.687,0.596,-0.725,-0.038,29.862,5.185,7.832,1.772,0.561,0.667,-9.969,6.867,-0.306,2.232,0.217
118.541,-0.411,-0.599,-0.687,0.596,-0.725,-0.038,29.862,5.185,7.832,1.772,0.561,0.667,-9.969,6.867,-0.306,2.232,0.217
118.601,-0.382,-0.606,-0.698,0.606,-0.716,-0.021,29.969,5.221,7.867,1.793,0.619,0.486,-10.530,6.284,0.019,2.237,0.224
118.601,-0.382,-0.606,-0.698,0.606,-0.716,-0.021,29.969,5.221,7.867,1.793,0.619,0.486,-10.530,6.284,0.019,2.237,0.224
118.641,-0.358,-0.602,-0.713,0.618,-0.701,-0.007,30.040,5.246,7.886,1.776,0.640,0.400,-10.801,8.017,0.658,2.240,0.227
118.641,-0.358,-0.602,-0.713,0.618,-0.701,-0.007,30.040,5.246,7.886,1.776,0.640,0.400,-10.801,8.017,0.658,2.240,0.227
118.701,-0.360,-0.596,-0.717,0.614,-0.697,0.000,30.143,5.286,7.905,1.652,0.674,0.242,-9.323,6.350,1.239,2.244,0.231
118.701,-0.360,-0.596,-0.717,0.614,-0.697,0.000,30.143,5.286,7.905,1.652,0.674,0.242,-9.323,6.350,1.239,2.244,0.231
118.741,-0.376,-0.580,-0.723,0.605,-0.691,0.002,30.193,5.328,7.857,1.588,0.650,0.226,-7.623,4.342,1.524,2.227,0.222
118.741,-0.376,-0.580,-0.723,0.605,-0.691,0.002,30.193,5.328,7.857,1.588,0.650,0.226,-7.623,4.342,1.524,2.227,0.222
118.801,-0.401,-0.558,-0.726,0.599,-0.687,-0.010,30.288,5.365,7.876,1.581,0.581,0.419,-4.922,2.404,0.110,2.232,0.220
118.801,-0.401,-0.558,-0.726,0.599,-0.687,-0.010,30.288,5.365,7.876,1.581,0.581,0.419,-4.922,2.404,0.110,2.232,0.220
118.841,-0.415,-0.552,-0.723,0.601,-0.690,-0.026,30.351,5.388,7.896,1.607,0.583,0.604,-4.135,2.951,-0.689,2.235,0.219
118.841,-0.415,-0.552,-0.723,0.601,-0.690,-0.026,30.351,5.388,7.896,1.607,0.583,0.604,-4.135,2.951,-0.689,2.235,0.219
118.901,-0.436,-0.552,-0.711,0.600,-0.701,-0.049,30.449,5.424,7.938,1.659,0.617,0.765,-6.309,3.256,-1.058,2.239,0.222
118.901,-0.436,-0.552,-0.711,0.600,-0.701,-0.049,30.449,5.424,7.938,1.659,0.617,0.765,-6.309,3.256,-1.058,2.239,0.222
118.961,-0.435,-0.565,-0.702,0.599,-0.711,-0.052,30.599,5.391,7.944,1.727,0.615,0.819,-9.659,7.419,0.036,2.226,0.219
118.961,-0.435,-0.565,-0.702,0.599,-0.711,-0.052,30.599,5.391,7.944,1.727,0.615,0.819,-9.659,7.419,0.036,2.226,0.219
119.001,-0.429,-0.574,-0.697,0.591,-0.716,-0.040,30.668,5.417,7.976,1.748,0.641,0.763,-8.910,5.635,-0.207,2.229,0.223
119.001,-0.429,-0.574,-0.697,0.591,-0.716,-0.040,30.668,5.417,7.976,1.748,0.641,0.763,-8.910,5.635,-0.207,2.229,0.223
119.061,-0.402,-0.586,-0.704,0.582,-0.711,-0.002,30.772,5.455,8.018,1.693,0.641,0.588,-11.035,8.561,1.491,2.234,0.226
119.101,-0.408,-0.591,-0.696,0.567,-0.718,0.007,30.839,5.481,8.039,1.663,0.625,0.446,-11.162,7.208,1.303,2.236,0.227
119.101,-0.408,-0.591,-0.696,0.567,-0.718,0.007,30.839,5.481,8.039,1.663,0.625,0.446,-11.162,7.208,1.303,2.236,0.227
119.101,-0.408,-0.591,-0.696,0.567,-0.718,0.007,30.839,5.481,8.039,1.663,0.625,0.446,-11.162,7.208,1.303,2.236,0.227
119.161,-0.412,-0.599,-0.687,0.555,-0.726,0.015,30.973,5.458,8.053,1.622,0.506,0.364,-7.789,5.008,1.973,2.222,0.217
119.201,-0.406,-0.590,-0.698,0.575,-0.716,0.001,31.036,5.477,8.067,1.539,0.460,0.358,-8.190,7.211,2.552,2.225,0.218
119.201,-0.406,-0.590,-0.698,0.575,-0.716,0.001,31.036,5.477,8.067,1.539,0.460,0.358,-8.190,7.211,2.552,2.225,0.218
119.261,-0.436,-0.583,-0.685,0.588,-0.727,-0.049,31.124,5.505,8.087,1.414,0.469,0.316,-7.039,5.510,0.142,2.230,0.230
119.261,-0.436,-0.583,-0.685,0.588,-0.727,-0.049,31.124,5.505,8.087,1.414,0.469,0.316,-7.039,5.510,0.142,2.230,0.230
119.301,-0.468,-0.581,-0.665,0.586,-0.742,-0.085,31.068,5.578,8.067,1.417,0.527,0.426,-5.512,2.580,-1.463,2.233,0.230
119.301,-0.468,-0.581,-0.665,0.586,-0.742,-0.085,31.068,5.578,8.067,1.417,0.527,0.426,-5.512,2.580,-1.463,2.233,0.230
119.361,-0.483,-0.592,-0.645,0.582,-0.757,-0.105,31.158,5.612,8.100,1.618,0.613,0.640,-7.019,3.476,-1.945,2.215,0.213
119.361,-0.483,-0.592,-0.645,0.582,-0.757,-0.105,31.158,5.612,8.100,1.618,0.613,0.640,-7.019,3.476,-1.945,2.215,0.213
119.401,-0.466,-0.597,-0.653,0.583,-0.752,-0.087,31.224,5.637,8.127,1.688,0.660,0.691,-7.611,5.125,-1.009,2.218,0.218
119.401,-0.466,-0.597,-0.653,0.583,-0.752,-0.087,31.224,5.637,8.127,1.688,0.660,0.691,-7.611,5.125,-1.009,2.218,0.218
119.461,-0.435,-0.604,-0.668,0.577,-0.742,-0.046,31.326,5.679,8.168,1.710,0.709,0.640,-9.594,6.478,0.403,2.223,0.226
119.461,-0.435,-0.604,-0.668,0.577,-0.742,-0.046,31.326,5.679,8.168,1.710,0.709,0.640,-9.594,6.478,0.403,2.223,0.226
119.521,-0.403,-0.623,-0.671,0.566,-0.742,-0.004,31.334,5.717,8.238,1.685,0.725,0.527,-10.341,5.995,0.142,2.207,0.220
119.521,-0.403,-0.623,-0.671,0.566,-0.742,-0.004,31.334,5.717,8.238,1.685,0.725,0.527,-10.341,5.995,0.142,2.207,0.220
119.561,-0.373,-0.631,-0.680,0.571,-0.733,0.021,31.401,5.746,8.258,1.660,0.705,0.444,-10.577,7.433,1.215,2.210,0.220
119.561,-0.373,-0.631,-0.680,0.571,-0.733,0.021,31.401,5.746,8.258,1.660,0.705,0.444,-10.577,7.433,1.215,2.210,0.220
119.621,-0.369,-0.635,-0.678,0.564,-0.734,0.031,31.495,5.786,8.279,1.462,0.622,0.271,-9.475,6.700,3.503,2.214,0.215
119.621,-0.369,-0.635,-0.678,0.564,-0.734,0.031,31.495,5.786,8.279,1.462,0.622,0.271,-9.475,6.700,3.503,2.214,0.215
119.661,-0.402,-0.629,-0.665,0.551,-0.747,0.013,31.552,5.810,8.289,1.377,0.550,0.256,-7.574,4.472,1.058,2.217,0.217
119.661,-0.402,-0.629,-0.665,0.551,-0.747,0.013,31.552,5.810,8.289,1.377,0.550,0.256,-7.574,4.472,1.058,2.217,0.217
119.721,-0.446,-0.617,-0.649,0.546,-0.760,-0.026,31.646,5.857,8.280,1.431,0.546,0.456,-5.381,2.709,-0.716,2.202,0.207
119.721,-0.446,-0.617,-0.649,0.546,-0.760,-0.026,31.646,5.857,8.280,1.431,0.546,0.456,-5.381,2.709,-0.716,2.202,0.207
119.761,-0.463,-0.615,-0.638,0.545,-0.769,-0.046,31.704,5.879,8.301,1.458,0.574,0.578,-5.655,4.476,-0.368,2.205,0.207
119.761,-0.463,-0.615,-0.638,0.545,-0.769,-0.046,31.704,5.879,8.301,1.458,0.574,0.578,-5.655,4.476,-0.368,2.205,0.207
119.821,-0.488,-0.604,-0.630,0.537,-0.774,-0.060,31.792,5.914,8.339,1.492,0.564,0.690,-7.257,2.749,0.063,2.210,0.209
119.821,-0.488,-0.604,-0.630,0.537,-0.774,-0.060,31.792,5.914,8.339,1.492,0.564,0.690,-7.257,2.749,0.063,2.210,0.209
119.861,-0.492,-0.606,-0.625,0.532,-0.778,-0.060,31.853,5.936,8.369,1.589,0.530,0.772,-8.519,3.573,-0.768,2.213,0.209
119.861,-0.492,-0.606,-0.625,0.532,-0.778,-0.060,31.853,5.936,8.369,1.589,0.530,0.772,-8.519,3.573,-0.768,2.213,0.209
119.921,-0.467,-0.632,-0.618,0.524,-0.785,-0.036,31.976,5.960,8.426,1.686,0.555,0.778,-7.417,5.177,-1.033,2.198,0.208
119.921,-0.467,-0.632,-0.618,0.524,-0.785,-0.036,31.976,5.960,8.426,1.686,0.555,0.778,-7.417,5.177,-1.033,2.198,0.208
119.961,-0.429,-0.649,-0.629,0.525,-0.778,-0.001,32.043,5.983,8.456,1.638,0.579,0.661,-12.456,10.168,1.807,2.201,0.210
119.961,-0.429,-0.649,-0.629,0.525,-0.778,-0.001,32.043,5.983,8.456,1.638,0.579,0.661,-12.456,10.168,1.807,2.201,0.210
120.021,-0.411,-0.657,-0.632,0.514,-0.774,0.031,32.138,6.016,8.489,1.526,0.491,0.479,-10.789,6.726,2.879,2.206,0.207
120.021,-0.411,-0.657,-0.632,0.514,-0.774,0.031,32.138,6.016,8.489,1.526,0.491,0.479,-10.789,6.726,2.879,2.206,0.207
120.061,-0.418,-0.669,-0.615,0.506,-0.788,0.022,32.196,6.034,8.505,1.416,0.397,0.298,-10.860,7.665,2.635,2.209,0.210
120.061,-0.418,-0.669,-0.615,0.506,-0.788,0.022,32.196,6.034,8.505,1.416,0.397,0.298,-10.860,7.665,2.635,2.209,0.210
120.121,-0.441,-0.663,-0.605,0.523,-0.796,-0.028,32.362,6.037,8.531,1.373,0.375,0.216,-8.200,6.810,-0.244,2.196,0.212
120.121,-0.441,-0.663,-0.605,0.523,-0.796,-0.028,32.362,6.037,8.531,1.373,0.375,0.216,-8.200,6.810,-0.244,2.196,0.212
120.181,-0.471,-0.640,-0.607,0.544,-0.791,-0.077,32.443,6.062,8.545,1.361,0.458,0.290,-5.721,3.691,-0.197,2.200,0.212
120.181,-0.471,-0.640,-0.607,0.544,-0.791,-0.077,32.443,6.062,8.545,1.361,0.458,0.290,-5.721,3.691,-0.197,2.200,0.212
120.221,-0.493,-0.627,-0.603,0.549,-0.791,-0.102,32.498,6.081,8.558,1.405,0.491,0.394,-6.299,3.086,-0.933,2.203,0.212
120.221,-0.493,-0.627,-0.603,0.549,-0.791,-0.102,32.498,6.081,8.558,1.405,0.491,0.394,-6.299,3.086,-0.933,2.203,0.212
120.281,-0.515,-0.623,-0.589,0.544,-0.799,-0.120,32.587,6.112,8.590,1.564,0.546,0.662,-6.043,1.885,-2.070,2.208,0.210
120.321,-0.505,-0.626,-0.594,0.542,-0.797,-0.107,32.659,6.128,8.611,1.671,0.592,0.794,-6.710,2.748,-1.790,2.192,0.208
120.321,-0.505,-0.626,-0.594,0.542,-0.797,-0.107,32.659,6.128,8.611,1.671,0.592,0.794,-6.710,2.748,-1.790,2.192,0.208
120.381,-0.463,-0.624,-0.630,0.558,-0.774,-0.070,32.761,6.163,8.661,1.694,0.574,0.792,-9.878,6.350,1.488,2.196,0.213
120.381,-0.463,-0.624,-0.630,0.558,-0.774,-0.070,32.761,6.163,8.661,1.694,0.574,0.792,-9.878,6.350,1.488,2.196,0.213
120.421,-0.448,-0.625,-0.640,0.566,-0.766,-0.063,32.828,6.186,8.691,1.694,0.568,0.721,-10.313,6.172,0.585,2.199,0.214
120.421,-0.448,-0.625,-0.640,0.566,-0.766,-0.063,32.828,6.186,8.691,1.694,0.568,0.721,-10.313,6.172,0.585,2.199,0.214
120.481,-0.421,-0.635,-0.647,0.574,-0.761,-0.049,32.930,6.221,8.728,1.703,0.582,0.504,-11.281,6.953,0.177,2.204,0.217
120.481,-0.421,-0.635,-0.647,0.574,-0.761,-0.049,32.930,6.221,8.728,1.703,0.582,0.504,-11.281,6.953,0.177,2.204,0.217
120.521,-0.400,-0.645,-0.652,0.584,-0.757,-0.045,32.999,6.214,8.807,1.682,0.610,0.368,-10.621,8.013,0.310,2.188,0.212
120.521,-0.400,-0.645,-0.652,0.584,-0.757,-0.045,32.999,6.214,8.807,1.682,0.610,0.368,-10.621,8.013,0.310,2.188,0.212
120.581,-0.387,-0.643,-0.661,0.579,-0.750,-0.019,33.096,6.251,8.823,1.527,0.605,0.181,-9.808,6.244,3.317,2.193,0.211
120.581,-0.387,-0.643,-0.661,0.579,-0.750,-0.019,33.096,6.251,8.823,1.527,0.605,0.181,-9.808,6.244,3.317,2.193,0.211
120.621,-0.398,-0.622,-0.674,0.578,-0.738,-0.014,33.155,6.274,8.830,1.455,0.523,0.167,-7.470,3.915,1.281,2.196,0.209
120.621,-0.398,-0.622,-0.674,0.578,-0.738,-0.014,33.155,6.274,8.830,1.455,0.523,0.167,-7.470,3.915,1.281,2.196,0.209
120.681,-0.419,-0.609,-0.673,0.573,-0.739,-0.025,33.243,6.305,8.845,1.489,0.527,0.347,-5.666,3.519,-0.616,2.201,0.209
120.681,-0.419,-0.609,-0.673,0.573,-0.739,-0.025,33.243,6.305,8.845,1.489,0.527,0.347,-5.666,3.519,-0.616,2.201,0.209
120.741,-0.429,-0.614,-0.663,0.560,-0.749,-0.022,33.411,6.271,8.874,1.559,0.531,0.563,-4.955,2.695,-0.932,2.188,0.206
120.741,-0.429,-0.614,-0.663,0.560,-0.749,-0.022,33.411,6.271,8.874,1.559,0.531,0.563,-4.955,2.695,-0.932,2.188,0.206
120.781,-0.425,-0.614,-0.665,0.557,-0.746,-0.013,33.474,6.292,8.900,1.606,0.534,0.748,-4.928,2.232,-0.533,2.191,0.208
120.781,-0.425,-0.614,-0.665,0.557,-0.746,-0.013,33.474,6.292,8.900,1.606,0.534,0.748,-4.928,2.232,-0.533,2.191,0.208
120.841,-0.406,-0.620,-0.671,0.556,-0.741,0.007,33.570,6.323,8.950,1.590,0.503,0.859,-7.664,4.955,0.739,2.196,0.209
120.841,-0.406,-0.620,-0.671,0.556,-0.741,0.007,33.570,6.323,8.950,1.590,0.503,0.859,-7.664,4.955,0.739,2.196,0.209
120.881,-0.398,-0.628,-0.669,0.554,-0.743,0.015,33.634,6.343,8.985,1.588,0.494,0.886,-8.606,6.036,0.231,2.199,0.209
120.881,-0.398,-0.628,-0.669,0.554,-0.743,0.015,33.634,6.343,8.985,1.588,0.494,0.886,-8.606,6.036,0.231,2.199,0.209
120.941,-0.387,-0.648,-0.656,0.540,-0.754,0.033,33.815,6.355,9.106,1.555,0.492,0.725,-9.937,6.324,-0.316,2.185,0.204
120.941,-0.387,-0.648,-0.656,0.540,-0.754,0.033,33.815,6.355,9.106,1.555,0.492,0.725,-9.937,6.324,-0.316,2.185,0.204
120.981,-0.378,-0.664,-0.645,0.531,-0.763,0.045,33.877,6.375,9.134,1.557,0.508,0.655,-9.998,6.549,-1.408,2.188,0.206
120.981,-0.378,-0.664,-0.645,0.531,-0.763,0.045,33.877,6.375,9.134,1.557,0.508,0.655,-9.998,6.549,-1.408,2.188,0.206
121.041,-0.361,-0.688,-0.630,0.521,-0.775,0.059,33.970,6.407,9.168,1.512,0.564,0.457,-9.871,7.644,0.423,2.193,0.210
121.041,-0.361,-0.688,-0.630,0.521,-0.775,0.059,33.970,6.407,9.168,1.512,0.564,0.457,-9.871,7.644,0.423,2.193,0.210
121.081,-0.358,-0.680,-0.640,0.523,-0.765,0.068,34.028,6.429,9.185,1.370,0.504,0.424,-7.875,6.707,3.848,2.196,0.214
121.081,-0.358,-0.680,-0.640,0.523,-0.765,0.068,34.028,6.429,9.185,1.370,0.504,0.424,-7.875,6.707,3.848,2.196,0.214
121.141,-0.421,-0.646,-0.637,0.525,-0.771,0.012,34.129,6.445,9.260,1.259,0.410,0.501,-7.812,3.565,-0.595,2.181,0.221
121.141,-0.421,-0.646,-0.637,0.525,-0.771,0.012,34.129,6.445,9.260,1.259,0.410,0.501,-7.812,3.565,-0.595,2.181,0.221
121.181,-0.467,-0.640,-0.610,0.517,-0.792,-0.033,34.180,6.462,9.281,1.355,0.422,0.555,-8.300,3.358,-2.262,2.184,0.215
121.181,-0.467,-0.640,-0.610,0.517,-0.792,-0.033,34.180,6.462,9.281,1.355,0.422,0.555,-8.300,3.358,-2.262,2.184,0.215
121.241,-0.487,-0.636,-0.598,0.515,-0.799,-0.054,34.267,6.489,9.318,1.534,0.458,0.680,-6.643,2.536,-1.010,2.189,0.206
121.241,-0.487,-0.636,-0.598,0.515,-0.799,-0.054,34.267,6.489,9.318,1.534,0.458,0.680,-6.643,2.536,-1.010,2.189,0.206
121.301,-0.471,-0.636,-0.611,0.524,-0.790,-0.045,34.361,6.515,9.362,1.584,0.418,0.748,-7.989,4.451,0.434,2.193,0.208
121.341,-0.450,-0.635,-0.628,0.538,-0.778,-0.036,34.481,6.522,9.428,1.612,0.391,0.725,-10.456,6.402,1.110,2.177,0.203
121.341,-0.450,-0.635,-0.628,0.538,-0.778,-0.036,34.481,6.522,9.428,1.612,0.391,0.725,-10.456,6.402,1.110,2.177,0.203
121.401,-0.422,-0.640,-0.642,0.559,-0.766,-0.033,34.575,6.543,9.466,1.529,0.317,0.495,-11.820,7.750,2.026,2.182,0.207
121.401,-0.422,-0.640,-0.642,0.559,-0.766,-0.033,34.575,6.543,9.466,1.529,0.317,0.495,-11.820,7.750,2.026,2.182,0.207
121.441,-0.420,-0.640,-0.644,0.568,-0.764,-0.043,34.635,6.556,9.482,1.465,0.301,0.323,-11.551,8.078,1.757,2.185,0.211
121.441,-0.420,-0.640,-0.644,0.568,-0.764,-0.043,34.635,6.556,9.482,1.465,0.301,0.323,-11.551,8.078,1.757,2.185,0.211
121.501,-0.430,-0.606,-0.669,0.584,-0.741,-0.051,34.722,6.573,9.498,1.451,0.267,0.222,-8.979,4.522,0.392,2.190,0.216
121.501,-0.430,-0.606,-0.669,0.584,-0.741,-0.051,34.722,6.573,9.498,1.451,0.267,0.222,-8.979,4.522,0.392,2.190,0.216
121.541,-0.431,-0.589,-0.684,0.599,-0.727,-0.060,34.881,6.529,9.570,1.524,0.241,0.284,-6.343,3.519,-0.485,2.176,0.211
121.541,-0.431,-0.589,-0.684,0.599,-0.727,-0.060,34.881,6.529,9.570,1.524,0.241,0.284,-6.343,3.519,-0.485,2.176,0.211
121.601,-0.427,-0.586,-0.688,0.609,-0.722,-0.068,34.972,6.545,9.591,1.508,0.324,0.395,-5.972,6.017,-0.188,2.180,0.208
121.601,-0.427,-0.586,-0.688,0.609,-0.722,-0.068,34.972,6.545,9.591,1.508,0.324,0.395,-5.972,6.017,-0.188,2.180,0.208
121.641,-0.430,-0.576,-0.696,0.609,-0.715,-0.065,35.032,6.559,9.609,1.497,0.371,0.497,-5.519,3.770,-0.388,2.184,0.208
121.641,-0.430,-0.576,-0.696,0.609,-0.715,-0.065,35.032,6.559,9.609,1.497,0.371,0.497,-5.519,3.770,-0.388,2.184,0.208
121.701,-0.425,-0.574,-0.700,0.604,-0.713,-0.052,35.123,6.582,9.644,1.538,0.392,0.638,-6.999,4.264,-0.237,2.188,0.208
121.701,-0.425,-0.574,-0.700,0.604,-0.713,-0.052,35.123,6.582,9.644,1.538,0.392,0.638,-6.999,4.264,-0.237,2.188,0.208
121.741,-0.419,-0.581,-0.697,0.594,-0.716,-0.036,35.223,6.565,9.728,1.585,0.383,0.714,-7.358,3.871,-0.224,2.173,0.203
121.741,-0.419,-0.581,-0.697,0.594,-0.716,-0.036,35.223,6.565,9.728,1.585,0.383,0.714,-7.358,3.871,-0.224,2.173,0.203
121.801,-0.400,-0.598,-0.695,0.580,-0.719,-0.004,35.318,6.587,9.772,1.591,0.356,0.696,-10.242,6.601,0.588,2.178,0.205
121.801,-0.400,-0.598,-0.695,0.580,-0.719,-0.004,35.318,6.587,9.772,1.591,0.356,0.696,-10.242,6.601,0.588,2.178,0.205
121.861,-0.377,-0.607,-0.700,0.580,-0.714,0.020,35.412,6.607,9.809,1.517,0.261,0.505,-11.219,7.770,2.793,2.183,0.209
121.861,-0.377,-0.607,-0.700,0.580,-0.714,0.020,35.412,6.607,9.809,1.517,0.261,0.505,-11.219,7.770,2.793,2.183,0.209
121.901,-0.379,-0.626,-0.682,0.582,-0.732,0.002,35.471,6.617,9.826,1.437,0.253,0.404,-8.305,6.686,-0.283,2.186,0.215
121.901,-0.379,-0.626,-0.682,0.582,-0.732,0.002,35.471,6.617,9.826,1.437,0.253,0.404,-8.305,6.686,-0.283,2.186,0.215
121.961,-0.390,-0.640,-0.662,0.587,-0.749,-0.032,35.536,6.594,9.951,1.359,0.333,0.410,-7.834,6.630,0.231,2.172,0.211
121.961,-0.390,-0.640,-0.662,0.587,-0.749,-0.032,35.536,6.594,9.951,1.359,0.333,0.410,-7.834,6.630,0.231,2.172,0.211
122.001,-0.405,-0.619,-0.672,0.596,-0.739,-0.046,35.589,6.608,9.968,1.313,0.334,0.431,-7.391,4.268,0.685,2.176,0.216
122.001,-0.405,-0.619,-0.672,0.596,-0.739,-0.046,35.589,6.608,9.968,1.313,0.334,0.431,-7.391,4.268,0.685,2.176,0.216
122.061,-0.434,-0.603,-0.669,0.593,-0.740,-0.066,35.670,6.628,9.998,1.406,0.333,0.574,-7.027,2.684,-0.740,2.180,0.212
122.061,-0.434,-0.603,-0.669,0.593,-0.740,-0.066,35.670,6.628,9.998,1.406,0.333,0.574,-7.027,2.684,-0.740,2.180,0.212
122.101,-0.431,-0.604,-0.670,0.588,-0.740,-0.056,35.728,6.641,10.022,1.477,0.348,0.638,-7.889,3.927,-1.027,2.183,0.210
122.101,-0.431,-0.604,-0.670,0.588,-0.740,-0.056,35.728,6.641,10.022,1.477,0.348,0.638,-7.889,3.927,-1.027,2.183,0.210
122.161,-0.402,-0.603,-0.689,0.597,-0.724,-0.031,35.933,6.638,10.074,1.576,0.345,0.730,-8.021,4.725,0.368,2.170,0.204
122.161,-0.402,-0.603,-0.689,0.597,-0.724,-0.031,35.933,6.638,10.074,1.576,0.345,0.730,-8.021,4.725,0.368,2.170,0.204
122.201,-0.388,-0.612,-0.689,0.597,-0.724,-0.020,35.995,6.652,10.103,1.565,0.357,0.698,-9.372,6.047,-0.327,2.174,0.205
122.201,-0.388,-0.612,-0.689,0.597,-0.724,-0.020,35.995,6.652,10.103,1.565,0.357,0.698,-9.372,6.047,-0.327,2.174,0.205
122.261,-0.357,-0.619,-0.700,0.606,-0.714,-0.001,36.090,6.674,10.142,1.591,0.359,0.582,-10.439,6.037,0.715,2.179,0.207
122.301,-0.339,-0.618,-0.710,0.619,-0.704,0.005,36.153,6.688,10.164,1.547,0.342,0.506,-9.869,6.704,1.502,2.182,0.208
122.301,-0.339,-0.618,-0.710,0.619,-0.704,0.005,36.153,6.688,10.164,1.547,0.342,0.506,-9.869,6.704,1.502,2.182,0.208
122.361,-0.359,-0.624,-0.694,0.612,-0.720,-0.016,36.249,6.704,10.260,1.430,0.378,0.349,-9.122,6.150,-0.348,2.168,0.207
122.361,-0.359,-0.624,-0.694,0.612,-0.720,-0.016,36.249,6.704,10.260,1.430,0.378,0.349,-9.122,6.150,-0.348,2.168,0.207
122.401,-0.374,-0.617,-0.692,0.608,-0.721,-0.022,36.307,6.720,10.274,1.453,0.407,0.374,-7.604,3.874,-0.802,2.171,0.208
122.401,-0.374,-0.617,-0.692,0.608,-0.721,-0.022,36.307,6.720,10.274,1.453,0.407,0.374,-7.604,3.874,-0.802,2.171,0.208
122.461,-0.374,-0.601,-0.706,0.611,-0.708,-0.015,36.393,6.743,10.297,1.418,0.357,0.399,-7.323,4.012,1.770,2.176,0.210
122.461,-0.374,-0.601,-0.706,0.611,-0.708,-0.015,36.393,6.743,10.297,1.418,0.357,0.399,-7.323,4.012,1.770,2.176,0.210
122.521,-0.392,-0.602,-0.695,0.596,-0.719,-0.017,36.554,6.684,10.352,1.474,0.300,0.566,-6.432,2.585,-1.171,2.163,0.205
122.521,-0.392,-0.602,-0.695,0.596,-0.719,-0.017,36.554,6.684,10.352,1.474,0.300,0.566,-6.432,2.585,-1.171,2.163,0.205
122.561,-0.388,-0.608,-0.693,0.589,-0.721,-0.007,36.615,6.696,10.377,1.547,0.309,0.664,-7.138,3.060,-1.279,2.166,0.204
122.561,-0.388,-0.608,-0.693,0.589,-0.721,-0.007,36.615,6.696,10.377,1.547,0.309,0.664,-7.138,3.060,-1.279,2.166,0.204
122.621,-0.360,-0.620,-0.697,0.587,-0.717,0.022,36.709,6.714,10.421,1.593,0.279,0.775,-7.639,4.119,0.197,2.171,0.206
122.621,-0.360,-0.620,-0.697,0.587,-0.717,0.022,36.709,6.714,10.421,1.593,0.279,0.775,-7.639,4.119,0.197,2.171,0.206
122.661,-0.348,-0.637,-0.688,0.580,-0.725,0.034,36.773,6.725,10.452,1.567,0.276,0.749,-9.865,7.002,-0.043,2.175,0.207
122.661,-0.348,-0.637,-0.688,0.580,-0.725,0.034,36.773,6.725,10.452,1.567,0.276,0.749,-9.865,7.002,-0.043,2.175,0.207
122.721,-0.338,-0.648,-0.683,0.568,-0.729,0.055,36.827,6.735,10.582,1.520,0.282,0.658,-9.423,5.071,-1.254,2.161,0.203
122.721,-0.338,-0.648,-0.683,0.568,-0.729,0.055,36.827,6.735,10.582,1.520,0.282,0.658,-9.423,5.071,-1.254,2.161,0.203
122.761,-0.327,-0.655,-0.681,0.571,-0.730,0.060,36.888,6.747,10.607,1.482,0.275,0.539,-11.257,7.911,1.353,2.164,0.204
122.761,-0.327,-0.655,-0.681,0.571,-0.730,0.060,36.888,6.747,10.607,1.482,0.275,0.539,-11.257,7.911,1.353,2.164,0.204
122.821,-0.332,-0.659,-0.675,0.564,-0.736,0.060,36.973,6.762,10.634,1.397,0.243,0.394,-9.095,5.891,-0.573,2.169,0.210
122.821,-0.332,-0.659,-0.675,0.564,-0.736,0.060,36.973,6.762,10.634,1.397,0.243,0.394,-9.095,5.891,-0.573,2.169,0.210
122.861,-0.331,-0.650,-0.684,0.574,-0.728,0.053,37.029,6.772,10.649,1.372,0.267,0.380,-7.987,5.462,-0.764,2.172,0.213
122.861,-0.331,-0.650,-0.684,0.574,-0.728,0.053,37.029,6.772,10.649,1.372,0.267,0.380,-7.987,5.462,-0.764,2.172,0.213
122.921,-0.338,-0.648,-0.682,0.578,-0.730,0.040,37.158,6.768,10.701,1.370,0.303,0.452,-6.438,3.685,-0.883,2.159,0.209
122.921,-0.338,-0.648,-0.682,0.578,-0.730,0.040,37.158,6.768,10.701,1.370,0.303,0.452,-6.438,3.685,-0.883,2.159,0.209
122.961,-0.345,-0.651,-0.676,0.575,-0.736,0.034,37.213,6.781,10.722,1.408,0.320,0.566,-5.987,2.662,-1.542,2.162,0.208
122.961,-0.345,-0.651,-0.676,0.575,-0.736,0.034,37.213,6.781,10.722,1.408,0.320,0.566,-5.987,2.662,-1.542,2.162,0.208
123.021,-0.341,-0.657,-0.672,0.569,-0.739,0.042,37.300,6.801,10.762,1.477,0.363,0.750,-6.781,3.748,-1.360,2.167,0.207
123.021,-0.341,-0.657,-0.672,0.569,-0.739,0.042,37.300,6.801,10.762,1.477,0.363,0.750,-6.781,3.748,-1.360,2.167,0.207
123.081,-0.333,-0.655,-0.679,0.574,-0.733,0.048,37.389,6.823,10.809,1.471,0.370,0.801,-8.380,4.788,-0.139,2.172,0.209
123.081,-0.333,-0.655,-0.679,0.574,-0.733,0.048,37.389,6.823,10.809,1.471,0.370,0.801,-8.380,4.788,-0.139,2.172,0.209
123.121,-0.335,-0.658,-0.674,0.569,-0.737,0.048,37.528,6.801,10.883,1.477,0.361,0.743,-10.471,5.829,-0.809,2.157,0.204
123.121,-0.335,-0.658,-0.674,0.569,-0.737,0.048,37.528,6.801,10.883,1.477,0.361,0.743,-10.471,5.829,-0.809,2.157,0.204
123.181,-0.325,-0.655,-0.683,0.578,-0.729,0.052,37.619,6.823,10.925,1.558,0.357,0.613,-11.774,5.571,-1.972,2.162,0.205
123.181,-0.325,-0.655,-0.683,0.578,-0.729,0.052,37.619,6.823,10.925,1.558,0.357,0.613,-11.774,5.571,-1.972,2.162,0.205
123.221,-0.299,-0.664,-0.686,0.584,-0.725,0.067,37.681,6.838,10.947,1.563,0.382,0.477,-10.969,7.060,-0.771,2.165,0.208
123.221,-0.299,-0.664,-0.686,0.584,-0.725,0.067,37.681,6.838,10.947,1.563,0.382,0.477,-10.969,7.060,-0.771,2.165,0.208
123.281,-0.279,-0.662,-0.695,0.590,-0.714,0.086,37.772,6.862,10.973,1.451,0.395,0.404,-8.658,5.948,0.843,2.170,0.211
123.281,-0.279,-0.662,-0.695,0.590,-0.714,0.086,37.772,6.862,10.973,1.451,0.395,0.404,-8.658,5.948,0.843,2.170,0.211
123.321,-0.285,-0.655,-0.700,0.590,-0.710,0.084,37.876,6.840,11.025,1.363,0.353,0.402,-7.653,5.133,1.263,2.155,0.209
123.321,-0.285,-0.655,-0.700,0.590,-0.710,0.084,37.876,6.840,11.025,1.363,0.353,0.402,-7.653,5.133,1.263,2.155,0.209
123.381,-0.316,-0.644,-0.697,0.590,-0.715,0.056,37.955,6.860,11.053,1.281,0.346,0.554,-5.608,4.209,-0.681,2.160,0.218
123.381,-0.316,-0.644,-0.697,0.590,-0.715,0.056,37.955,6.860,11.053,1.281,0.346,0.554,-5.608,4.209,-0.681,2.160,0.218
123.421,-0.343,-0.639,-0.688,0.585,-0.725,0.032,38.006,6.875,11.078,1.273,0.378,0.689,-5.114,3.264,-1.027,2.163,0.222
123.421,-0.343,-0.639,-0.688,0.585,-0.725,0.032,38.006,6.875,11.078,1.273,0.378,0.689,-5.114,3.264,-1.027,2.163,0.222
123.481,-0.382,-0.631,-0.676,0.574,-0.737,0.005,38.083,6.898,11.126,1.318,0.397,0.862,-7.512,3.704,-0.972,2.168,0.221
123.481,-0.382,-0.631,-0.676,0.574,-0.737,0.005,38.083,6.898,11.126,1.318,0.397,0.862,-7.512,3.704,-0.972,2.168,0.221
123.521,-0.399,-0.632,-0.665,0.562,-0.747,0.001,38.219,6.884,11.175,1.394,0.396,0.877,-9.051,3.922,-1.170,2.153,0.210
123.521,-0.399,-0.632,-0.665,0.562,-0.747,0.001,38.219,6.884,11.175,1.394,0.396,0.877,-9.051,3.922,-1.170,2.153,0.210
123.581,-0.389,-0.638,-0.665,0.552,-0.747,0.022,38.306,6.907,11.227,1.510,0.387,0.852,-9.925,5.120,-1.014,2.158,0.206
123.581,-0.389,-0.638,-0.665,0.552,-0.747,0.022,38.306,6.907,11.227,1.510,0.387,0.852,-9.925,5.120,-1.014,2.158,0.206
123.641,-0.352,-0.659,-0.665,0.542,-0.744,0.067,38.396,6.930,11.273,1.464,0.357,0.643,-11.578,7.631,1.062,2.163,0.208
123.641,-0.352,-0.659,-0.665,0.542,-0.744,0.067,38.396,6.930,11.273,1.464,0.357,0.643,-11.578,7.631,1.062,2.163,0.208
123.681,-0.334,-0.666,-0.667,0.542,-0.740,0.083,38.453,6.944,11.298,1.405,0.318,0.550,-10.585,7.344,1.267,2.166,0.209
123.681,-0.334,-0.666,-0.667,0.542,-0.740,0.083,38.453,6.944,11.298,1.405,0.318,0.550,-10.585,7.344,1.267,2.166,0.209
123.741,-0.343,-0.675,-0.653,0.539,-0.754,0.069,38.626,6.921,11.378,1.317,0.242,0.499,-7.651,4.660,0.373,2.153,0.213
123.781,-0.354,-0.665,-0.658,0.554,-0.752,0.041,38.678,6.930,11.398,1.245,0.231,0.487,-8.556,7.002,0.890,2.156,0.220
123.781,-0.354,-0.665,-0.658,0.554,-0.752,0.041,38.678,6.930,11.398,1.245,0.231,0.487,-8.556,7.002,0.890,2.156,0.220
123.841,-0.398,-0.645,-0.653,0.565,-0.758,-0.014,38.749,6.945,11.427,1.173,0.282,0.486,-7.001,4.981,-1.169,2.161,0.234
123.841,-0.398,-0.645,-0.653,0.565,-0.758,-0.014,38.749,6.945,11.427,1.173,0.282,0.486,-7.001,4.981,-1.169,2.161,0.234
123.881,-0.430,-0.642,-0.635,0.560,-0.771,-0.046,38.797,6.958,11.448,1.229,0.335,0.576,-6.759,2.909,-2.252,2.165,0.231
123.881,-0.430,-0.642,-0.635,0.560,-0.771,-0.046,38.797,6.958,11.448,1.229,0.335,0.576,-6.759,2.909,-2.252,2.165,0.231
123.941,-0.441,-0.649,-0.620,0.550,-0.783,-0.053,38.980,6.981,11.507,1.417,0.444,0.733,-6.842,3.047,-2.729,2.151,0.211
123.941,-0.441,-0.649,-0.620,0.550,-0.783,-0.053,38.980,6.981,11.507,1.417,0.444,0.733,-6.842,3.047,-2.729,2.151,0.211
123.981,-0.424,-0.652,-0.629,0.550,-0.777,-0.034,39.039,7.000,11.539,1.496,0.490,0.814,-7.563,4.052,-0.770,2.154,0.213
123.981,-0.424,-0.652,-0.629,0.550,-0.777,-0.034,39.039,7.000,11.539,1.496,0.490,0.814,-7.563,4.052,-0.770,2.154,0.213
124.041,-0.406,-0.657,-0.635,0.546,-0.772,-0.009,39.129,7.030,11.589,1.517,0.505,0.831,-8.569,4.673,-0.535,2.159,0.216
124.041,-0.406,-0.657,-0.635,0.546,-0.772,-0.009,39.129,7.030,11.589,1.517,0.505,0.831,-8.569,4.673,-0.535,2.159,0.216
124.081,-0.396,-0.664,-0.634,0.542,-0.774,0.004,39.190,7.051,11.621,1.547,0.526,0.750,-11.721,7.052,-0.475,2.163,0.219
124.081,-0.396,-0.664,-0.634,0.542,-0.774,0.004,39.190,7.051,11.621,1.547,0.526,0.750,-11.721,7.052,-0.475,2.163,0.219
124.141,-0.365,-0.670,-0.647,0.543,-0.762,0.039,39.326,7.034,11.720,1.625,0.531,0.566,-10.621,5.224,-1.746,2.148,0.216
124.141,-0.365,-0.670,-0.647,0.543,-0.762,0.039,39.326,7.034,11.720,1.625,0.531,0.566,-10.621,5.224,-1.746,2.148,0.216
124.201,-0.309,-0.670,-0.675,0.559,-0.733,0.088,39.421,7.065,11.748,1.489,0.482,0.347,-10.459,7.839,2.577,2.153,0.215
124.201,-0.309,-0.670,-0.675,0.559,-0.733,0.088,39.421,7.065,11.748,1.489,0.482,0.347,-10.459,7.839,2.577,2.153,0.215
124.241,-0.302,-0.659,-0.689,0.563,-0.717,0.101,39.478,7.083,11.760,1.331,0.399,0.293,-8.312,6.119,3.683,2.157,0.215
124.241,-0.302,-0.659,-0.689,0.563,-0.717,0.101,39.478,7.083,11.760,1.331,0.399,0.293,-8.312,6.119,3.683,2.157,0.215
124.301,-0.343,-0.661,-0.668,0.543,-0.741,0.075,39.552,7.105,11.781,1.208,0.369,0.415,-5.474,3.831,-0.720,2.161,0.228
124.301,-0.343,-0.661,-0.668,0.543,-0.741,0.075,39.552,7.105,11.781,1.208,0.369,0.415,-5.474,3.831,-0.720,2.161,0.228
124.341,-0.379,-0.654,-0.655,0.535,-0.755,0.046,39.734,7.099,11.789,1.286,0.392,0.569,-4.945,1.992,-1.736,2.147,0.220
124.341,-0.379,-0.654,-0.655,0.535,-0.755,0.046,39.734,7.099,11.789,1.286,0.392,0.569,-4.945,1.992,-1.736,2.147,0.220
124.401,-0.414,-0.653,-0.635,0.525,-0.773,0.016,39.814,7.124,11.831,1.394,0.434,0.798,-6.123,3.028,-2.034,2.152,0.213
124.401,-0.414,-0.653,-0.635,0.525,-0.773,0.016,39.814,7.124,11.831,1.394,0.434,0.798,-6.123,3.028,-2.034,2.152,0.213
124.441,-0.423,-0.652,-0.630,0.519,-0.777,0.013,39.871,7.141,11.865,1.456,0.444,0.913,-6.698,3.086,-0.958,2.155,0.212
124.441,-0.423,-0.652,-0.630,0.519,-0.777,0.013,39.871,7.141,11.865,1.456,0.444,0.913,-6.698,3.086,-0.958,2.155,0.212
124.501,-0.418,-0.658,-0.626,0.512,-0.779,0.023,39.960,7.167,11.922,1.511,0.409,0.965,-8.709,4.422,-0.856,2.160,0.210
124.501,-0.418,-0.658,-0.626,0.512,-0.779,0.023,39.960,7.167,11.922,1.511,0.409,0.965,-8.709,4.422,-0.856,2.160,0.210
124.541,-0.406,-0.669,-0.623,0.510,-0.782,0.033,40.121,7.140,11.970,1.576,0.403,0.945,-9.295,5.669,-1.242,2.144,0.203
124.541,-0.406,-0.669,-0.623,0.510,-0.782,0.033,40.121,7.140,11.970,1.576,0.403,0.945,-9.295,5.669,-1.242,2.144,0.203
124.601,-0.373,-0.689,-0.621,0.506,-0.781,0.064,40.215,7.164,12.022,1.519,0.385,0.726,-11.504,7.846,0.347,2.149,0.205
124.601,-0.373,-0.689,-0.621,0.506,-0.781,0.064,40.215,7.164,12.022,1.519,0.385,0.726,-11.504,7.846,0.347,2.149,0.205
124.641,-0.354,-0.698,-0.623,0.509,-0.778,0.076,40.275,7.180,12.048,1.476,0.391,0.598,-11.120,8.356,0.452,2.153,0.207
124.641,-0.354,-0.698,-0.623,0.509,-0.778,0.076,40.275,7.180,12.048,1.476,0.391,0.598,-11.120,8.356,0.452,2.153,0.207
124.701,-0.339,-0.701,-0.627,0.517,-0.775,0.080,40.358,7.204,12.079,1.296,0.397,0.446,-8.290,7.451,0.938,2.157,0.217
124.701,-0.339,-0.701,-0.627,0.517,-0.775,0.080,40.358,7.204,12.079,1.296,0.397,0.446,-8.290,7.451,0.938,2.157,0.217
124.741,-0.355,-0.690,-0.631,0.525,-0.774,0.057,40.487,7.155,12.105,1.214,0.421,0.411,-7.657,6.953,-0.564,2.142,0.226
124.741,-0.355,-0.690,-0.631,0.525,-0.774,0.057,40.487,7.155,12.105,1.214,0.421,0.411,-7.657,6.953,-0.564,2.142,0.226
124.801,-0.410,-0.665,-0.624,0.523,-0.781,0.012,40.559,7.182,12.131,1.204,0.486,0.488,-6.184,3.262,-1.441,2.147,0.238
124.801,-0.410,-0.665,-0.624,0.523,-0.781,0.012,40.559,7.182,12.131,1.204,0.486,0.488,-6.184,3.262,-1.441,2.147,0.238
124.861,-0.453,-0.650,-0.610,0.510,-0.792,-0.013,40.634,7.212,12.166,1.319,0.512,0.664,-6.018,2.311,-1.858,2.152,0.230
124.881,-0.458,-0.646,-0.610,0.508,-0.792,-0.014,40.661,7.223,12.180,1.368,0.521,0.737,-6.176,2.438,-1.858,2.154,0.227
124.901,-0.457,-0.644,-0.613,0.509,-0.790,-0.012,40.688,7.233,12.195,1.406,0.526,0.789,-7.176,3.605,-0.982,2.155,0.225
124.901,-0.457,-0.644,-0.613,0.509,-0.790,-0.012,40.688,7.233,12.195,1.406,0.526,0.789,-7.176,3.605,-0.982,2.155,0.225
124.961,-0.445,-0.649,-0.616,0.509,-0.787,-0.001,40.900,7.177,12.221,1.490,0.504,0.843,-7.546,4.525,-0.858,2.141,0.214
125.001,-0.433,-0.660,-0.614,0.509,-0.789,0.007,40.959,7.197,12.255,1.505,0.516,0.821,-9.203,6.020,-0.749,2.144,0.215
125.001,-0.433,-0.660,-0.614,0.509,-0.789,0.007,40.959,7.197,12.255,1.505,0.516,0.821,-9.203,6.020,-0.749,2.144,0.215
125.061,-0.408,-0.676,-0.613,0.510,-0.790,0.022,41.051,7.230,12.302,1.540,0.565,0.719,-11.070,7.373,-0.675,2.149,0.221
125.061,-0.408,-0.676,-0.613,0.510,-0.790,0.022,41.051,7.230,12.302,1.540,0.565,0.719,-11.070,7.373,-0.675,2.149,0.221
125.101,-0.389,-0.679,-0.622,0.516,-0.782,0.037,41.126,7.230,12.334,1.524,0.556,0.597,-10.089,5.948,-0.478,2.153,0.223
125.101,-0.389,-0.679,-0.622,0.516,-0.782,0.037,41.126,7.230,12.334,1.524,0.556,0.597,-10.089,5.948,-0.478,2.153,0.223
125.161,-0.373,-0.681,-0.631,0.520,-0.774,0.052,41.215,7.263,12.365,1.421,0.536,0.428,-10.090,7.611,1.414,2.135,0.213
125.161,-0.373,-0.681,-0.631,0.520,-0.774,0.052,41.215,7.263,12.365,1.421,0.536,0.428,-10.090,7.611,1.414,2.135,0.213
125.201,-0.382,-0.669,-0.637,0.518,-0.769,0.052,41.270,7.284,12.380,1.329,0.486,0.357,-8.943,6.026,2.119,2.139,0.216
125.201,-0.382,-0.669,-0.637,0.518,-0.769,0.052,41.270,7.284,12.380,1.329,0.486,0.357,-8.943,6.026,2.119,2.139,0.216
125.261,-0.414,-0.657,-0.630,0.509,-0.776,0.034,41.347,7.311,12.403,1.276,0.455,0.437,-5.453,3.429,-1.114,2.144,0.220
125.261,-0.414,-0.657,-0.630,0.509,-0.776,0.034,41.347,7.311,12.403,1.276,0.455,0.437,-5.453,3.429,-1.114,2.144,0.220
125.301,-0.438,-0.650,-0.621,0.507,-0.784,0.011,41.399,7.330,12.424,1.318,0.473,0.607,-4.662,2.135,-1.544,2.147,0.220
125.301,-0.438,-0.650,-0.621,0.507,-0.784,0.011,41.399,7.330,12.424,1.318,0.473,0.607,-4.662,2.135,-1.544,2.147,0.220
125.361,-0.459,-0.656,-0.599,0.496,-0.801,-0.008,41.615,7.260,12.361,1.457,0.512,0.786,-6.184,3.578,-2.082,2.131,0.208
125.361,-0.459,-0.656,-0.599,0.496,-0.801,-0.008,41.615,7.260,12.361,1.457,0.512,0.786,-6.184,3.578,-2.082,2.131,0.208
125.421,-0.458,-0.658,-0.598,0.492,-0.801,-0.001,41.705,7.292,12.413,1.533,0.519,0.901,-7.710,4.516,-0.449,2.136,0.210
125.421,-0.458,-0.658,-0.598,0.492,-0.801,-0.001,41.705,7.292,12.413,1.533,0.519,0.901,-7.710,4.516,-0.449,2.136,0.210
125.461,-0.450,-0.666,-0.595,0.484,-0.803,0.013,41.767,7.312,12.449,1.545,0.511,0.897,-8.760,5.778,-0.151,2.139,0.210
125.461,-0.450,-0.666,-0.595,0.484,-0.803,0.013,41.767,7.312,12.449,1.545,0.511,0.897,-8.760,5.778,-0.151,2.139,0.210
125.521,-0.427,-0.679,-0.597,0.479,-0.801,0.038,42.009,7.267,12.489,1.624,0.479,0.787,-10.694,6.902,-0.235,2.123,0.203
125.521,-0.427,-0.679,-0.597,0.479,-0.801,0.038,42.009,7.267,12.489,1.624,0.479,0.787,-10.694,6.902,-0.235,2.123,0.203
125.561,-0.403,-0.684,-0.608,0.478,-0.791,0.068,42.073,7.285,12.518,1.590,0.447,0.657,-10.407,6.963,0.622,2.127,0.202
125.561,-0.403,-0.684,-0.608,0.478,-0.791,0.068,42.073,7.285,12.518,1.590,0.447,0.657,-10.407,6.963,0.622,2.127,0.202
125.621,-0.377,-0.683,-0.626,0.491,-0.775,0.087,42.166,7.310,12.553,1.482,0.347,0.503,-8.999,5.977,1.974,2.132,0.200
125.621,-0.377,-0.683,-0.626,0.491,-0.775,0.087,42.166,7.310,12.553,1.482,0.347,0.503,-8.999,5.977,1.974,2.132,0.200
125.661,-0.379,-0.685,-0.622,0.502,-0.780,0.066,42.223,7.323,12.574,1.405,0.300,0.515,-7.817,6.414,0.716,2.135,0.202
125.661,-0.379,-0.685,-0.622,0.502,-0.780,0.066,42.223,7.323,12.574,1.405,0.300,0.515,-7.817,6.414,0.716,2.135,0.202
125.721,-0.412,-0.682,-0.605,0.515,-0.796,0.004,42.444,7.366,12.488,1.352,0.395,0.452,-7.362,6.035,-0.807,2.112,0.199
125.721,-0.412,-0.682,-0.605,0.515,-0.796,0.004,42.444,7.366,12.488,1.352,0.395,0.452,-7.362,6.035,-0.807,2.112,0.199
125.761,-0.440,-0.676,-0.592,0.519,-0.806,-0.035,42.498,7.383,12.508,1.375,0.443,0.537,-5.742,3.266,-1.177,2.115,0.202
125.761,-0.440,-0.676,-0.592,0.519,-0.806,-0.035,42.498,7.383,12.508,1.375,0.443,0.537,-5.742,3.266,-1.177,2.115,0.202
125.821,-0.464,-0.682,-0.565,0.510,-0.822,-0.064,42.584,7.411,12.547,1.507,0.504,0.751,-6.871,3.373,-1.921,2.120,0.199
125.821,-0.464,-0.682,-0.565,0.510,-0.822,-0.064,42.584,7.411,12.547,1.507,0.504,0.751,-6.871,3.373,-1.921,2.120,0.199
125.861,-0.460,-0.681,-0.569,0.510,-0.820,-0.058,42.646,7.432,12.579,1.579,0.538,0.828,-7.418,3.742,-0.792,2.123,0.201
125.861,-0.460,-0.681,-0.569,0.510,-0.820,-0.058,42.646,7.432,12.579,1.579,0.538,0.828,-7.418,3.742,-0.792,2.123,0.201
125.921,-0.441,-0.682,-0.583,0.512,-0.811,-0.034,42.860,7.443,12.617,1.674,0.557,0.821,-9.225,5.150,-0.429,2.105,0.195
125.921,-0.441,-0.682,-0.583,0.512,-0.811,-0.034,42.860,7.443,12.617,1.674,0.557,0.821,-9.225,5.150,-0.429,2.105,0.195
125.981,-0.415,-0.696,-0.586,0.512,-0.810,-0.014,42.962,7.476,12.664,1.717,0.579,0.692,-11.681,7.350,-0.400,2.110,0.199
126.021,-0.392,-0.709,-0.587,0.508,-0.810,0.010,43.030,7.500,12.689,1.739,0.618,0.560,-10.660,5.886,-2.216,2.113,0.204
126.021,-0.392,-0.709,-0.587,0.508,-0.810,0.010,43.030,7.500,12.689,1.739,0.618,0.560,-10.660,5.886,-2.216,2.113,0.204
126.021,-0.392,-0.709,-0.587,0.508,-0.810,0.010,43.030,7.500,12.689,1.739,0.618,0.560,-10.660,5.886,-2.216,2.113,0.204
126.081,-0.333,-0.710,-0.621,0.524,-0.781,0.067,43.135,7.538,12.719,1.679,0.629,0.410,-11.764,8.802,2.877,2.118,0.210
126.121,-0.324,-0.692,-0.645,0.524,-0.758,0.098,43.219,7.486,12.729,1.457,0.502,0.262,-10.165,6.101,5.794,2.097,0.192
126.121,-0.324,-0.692,-0.645,0.524,-0.758,0.098,43.219,7.486,12.729,1.457,0.502,0.262,-10.165,6.101,5.794,2.097,0.192
126.181,-0.386,-0.685,-0.618,0.499,-0.784,0.059,43.299,7.511,12.745,1.292,0.345,0.308,-6.972,3.136,-0.357,2.101,0.205
126.181,-0.386,-0.685,-0.618,0.499,-0.784,0.059,43.299,7.511,12.745,1.292,0.345,0.308,-6.972,3.136,-0.357,2.101,0.205
126.221,-0.434,-0.688,-0.582,0.484,-0.813,0.012,43.352,7.524,12.760,1.379,0.337,0.473,-4.628,0.530,-2.687,2.104,0.199
126.221,-0.434,-0.688,-0.582,0.484,-0.813,0.012,43.352,7.524,12.760,1.379,0.337,0.473,-4.628,0.530,-2.687,2.104,0.199
126.281,-0.451,-0.694,-0.561,0.484,-0.828,-0.021,43.440,7.546,12.795,1.523,0.431,0.653,-6.067,4.441,-1.999,2.108,0.188
126.281,-0.451,-0.694,-0.561,0.484,-0.828,-0.021,43.440,7.546,12.795,1.523,0.431,0.653,-6.067,4.441,-1.999,2.108,0.188
126.321,-0.451,-0.687,-0.570,0.490,-0.821,-0.020,43.613,7.531,12.762,1.594,0.460,0.784,-5.278,2.408,-1.106,2.091,0.182
126.321,-0.451,-0.687,-0.570,0.490,-0.821,-0.020,43.613,7.531,12.762,1.594,0.460,0.784,-5.278,2.408,-1.106,2.091,0.182
126.381,-0.436,-0.689,-0.579,0.495,-0.815,-0.008,43.711,7.558,12.814,1.663,0.463,0.857,-9.357,5.686,-1.013,2.095,0.182
126.381,-0.436,-0.689,-0.579,0.495,-0.815,-0.008,43.711,7.558,12.814,1.663,0.463,0.857,-9.357,5.686,-1.013,2.095,0.182
126.421,-0.422,-0.693,-0.585,0.490,-0.811,0.014,43.778,7.577,12.848,1.715,0.484,0.846,-9.434,4.964,-1.348,2.098,0.185
126.421,-0.422,-0.693,-0.585,0.490,-0.811,0.014,43.778,7.577,12.848,1.715,0.484,0.846,-9.434,4.964,-1.348,2.098,0.185
126.481,-0.389,-0.700,-0.599,0.481,-0.798,0.067,43.883,7.606,12.894,1.724,0.462,0.654,-11.424,6.916,0.478,2.103,0.187
126.481,-0.389,-0.700,-0.599,0.481,-0.798,0.067,43.883,7.606,12.894,1.724,0.462,0.654,-11.424,6.916,0.478,2.103,0.187
126.541,-0.359,-0.703,-0.614,0.476,-0.782,0.112,44.000,7.611,13.000,1.628,0.344,0.460,-12.206,7.565,2.272,2.087,0.177
126.541,-0.359,-0.703,-0.614,0.476,-0.782,0.112,44.000,7.611,13.000,1.628,0.344,0.460,-12.206,7.565,2.272,2.087,0.177
126.581,-0.354,-0.705,-0.615,0.478,-0.780,0.115,44.062,7.623,13.016,1.484,0.238,0.362,-9.195,5.838,2.886,2.089,0.182
126.581,-0.354,-0.705,-0.615,0.478,-0.780,0.115,44.062,7.623,13.016,1.484,0.238,0.362,-9.195,5.838,2.886,2.089,0.182
126.641,-0.382,-0.698,-0.606,0.495,-0.794,0.058,44.147,7.635,13.038,1.372,0.201,0.385,-7.209,5.319,-0.571,2.094,0.197
126.641,-0.382,-0.698,-0.606,0.495,-0.794,0.058,44.147,7.635,13.038,1.372,0.201,0.385,-7.209,5.319,-0.571,2.094,0.197
126.681,-0.407,-0.685,-0.604,0.513,-0.797,0.009,44.202,7.644,13.055,1.378,0.254,0.448,-6.544,5.104,-1.585,2.097,0.197
126.681,-0.407,-0.685,-0.604,0.513,-0.797,0.009,44.202,7.644,13.055,1.378,0.254,0.448,-6.544,5.104,-1.585,2.097,0.197
126.741,-0.441,-0.671,-0.596,0.527,-0.802,-0.043,44.391,7.611,12.968,1.452,0.324,0.562,-5.181,3.082,-1.813,2.077,0.180
126.741,-0.441,-0.671,-0.596,0.527,-0.802,-0.043,44.391,7.611,12.968,1.452,0.324,0.562,-5.181,3.082,-1.813,2.077,0.180
126.781,-0.456,-0.668,-0.588,0.526,-0.806,-0.059,44.450,7.625,12.994,1.538,0.373,0.723,-5.763,2.601,-2.237,2.080,0.177
126.781,-0.456,-0.668,-0.588,0.526,-0.806,-0.059,44.450,7.625,12.994,1.538,0.373,0.723,-5.763,2.601,-2.237,2.080,0.177
126.841,-0.450,-0.665,-0.595,0.527,-0.802,-0.050,44.547,7.650,13.041,1.678,0.444,0.811,-8.200,4.290,-1.574,2.084,0.178
126.841,-0.450,-0.665,-0.595,0.527,-0.802,-0.050,44.547,7.650,13.041,1.678,0.444,0.811,-8.200,4.290,-1.574,2.084,0.178
126.881,-0.431,-0.662,-0.613,0.533,-0.790,-0.029,44.615,7.668,13.073,1.722,0.466,0.784,-9.936,5.980,-0.759,2.087,0.182
126.881,-0.431,-0.662,-0.613,0.533,-0.790,-0.029,44.615,7.668,13.073,1.722,0.466,0.784,-9.936,5.980,-0.759,2.087,0.182
126.941,-0.401,-0.665,-0.630,0.533,-0.776,0.010,44.747,7.650,13.213,1.740,0.431,0.661,-10.390,5.382,0.275,2.072,0.178
126.941,-0.401,-0.665,-0.630,0.533,-0.776,0.010,44.747,7.650,13.213,1.740,0.431,0.661,-10.390,5.382,0.275,2.072,0.178
126.981,-0.369,-0.666,-0.648,0.541,-0.760,0.040,44.816,7.667,13.238,1.742,0.402,0.569,-10.993,6.290,0.344,2.075,0.178
126.981,-0.369,-0.666,-0.648,0.541,-0.760,0.040,44.816,7.667,13.238,1.742,0.402,0.569,-10.993,6.290,0.344,2.075,0.178
127.041,-0.328,-0.660,-0.676,0.563,-0.734,0.066,44.918,7.689,13.268,1.622,0.323,0.425,-10.337,6.929,2.781,2.079,0.175
127.041,-0.328,-0.660,-0.676,0.563,-0.734,0.066,44.918,7.689,13.268,1.622,0.323,0.425,-10.337,6.929,2.781,2.079,0.175
127.081,-0.336,-0.655,-0.677,0.565,-0.734,0.058,44.980,7.701,13.284,1.504,0.276,0.363,-8.988,5.446,0.876,2.082,0.178
127.081,-0.336,-0.655,-0.677,0.565,-0.734,0.058,44.980,7.701,13.284,1.504,0.276,0.363,-8.988,5.446,0.876,2.082,0.178
127.141,-0.360,-0.640,-0.679,0.570,-0.734,0.031,45.205,7.704,13.269,1.523,0.255,0.367,-7.281,4.190,0.108,2.063,0.173
127.141,-0.360,-0.640,-0.679,0.570,-0.734,0.031,45.205,7.704,13.269,1.523,0.255,0.367,-7.281,4.190,0.108,2.063,0.173
127.201,-0.380,-0.628,-0.679,0.580,-0.735,0.001,45.296,7.719,13.297,1.524,0.251,0.559,-4.545,3.073,-0.750,2.067,0.175
127.241,-0.396,-0.629,-0.669,0.580,-0.743,-0.020,45.357,7.730,13.322,1.549,0.296,0.713,-5.215,3.779,-1.613,2.070,0.174
127.241,-0.396,-0.629,-0.669,0.580,-0.743,-0.020,45.357,7.730,13.322,1.549,0.296,0.713,-5.215,3.779,-1.613,2.070,0.174
127.301,-0.412,-0.629,-0.659,0.571,-0.751,-0.027,45.453,7.750,13.369,1.666,0.382,0.826,-7.623,3.462,-2.424,2.074,0.173
127.301,-0.412,-0.629,-0.659,0.571,-0.751,-0.027,45.453,7.750,13.369,1.666,0.382,0.826,-7.623,3.462,-2.424,2.074,0.173
127.341,-0.403,-0.629,-0.665,0.568,-0.747,-0.012,45.536,7.757,13.425,1.733,0.388,0.840,-9.074,4.952,-0.989,2.059,0.171
127.341,-0.403,-0.629,-0.665,0.568,-0.747,-0.012,45.536,7.757,13.425,1.733,0.388,0.840,-9.074,4.952,-0.989,2.059,0.171
127.401,-0.380,-0.643,-0.665,0.550,-0.746,0.033,45.642,7.781,13.474,1.774,0.383,0.744,-10.806,6.344,-0.219,2.063,0.174
127.401,-0.380,-0.643,-0.665,0.550,-0.746,0.033,45.642,7.781,13.474,1.774,0.383,0.744,-10.806,6.344,-0.219,2.063,0.174
127.441,-0.354,-0.650,-0.672,0.541,-0.737,0.071,45.712,7.795,13.501,1.736,0.341,0.609,-11.392,7.007,1.400,2.065,0.174
127.441,-0.354,-0.650,-0.672,0.541,-0.737,0.071,45.712,7.795,13.501,1.736,0.341,0.609,-11.392,7.007,1.400,2.065,0.174
